InstText,Show,VideoClip,VictimImg,AccusedImg,VictimName,AccusedName,Background,QuestionText,LowAnchor,HighAnchor,Instructions.thisRepN,Instructions.thisTrialN,Instructions.thisN,Instructions.thisIndex,VidTrials.thisRepN,VidTrials.thisTrialN,VidTrials.thisN,VidTrials.thisIndex,Questions.thisRepN,Questions.thisTrialN,Questions.thisN,Questions.thisIndex,Space1.rt,Space2.rt,RoleText,Show,Total Certainty Ratings,Certainty Status,slider.response,RoleManip Check Answer,slider.rt,enter.rt,QuestionScale.response,QuestionScale.rt,EnterEnd.rt,Participant,date,expName,psychopyVersion,frameRate,
"In this part of the study, you will be watching clips of television shows and making continous assessments about your thoughts regarding one of the characters. 

 Press SPACE to continue.",,,,,,,,,,,0,0,0,0,,,,,,,,,1.2974032000638545,,,,,,,,,,,,,13,2021_Apr_07_0810,Certainty Task-Joy,2021.1.2,59.887447496818794,
"You will first be presented with a little background for the clip - each video you watch will be from a murder mystery show, in which one character has been accused of the crime. 

You will be given information about the accused, the victim, and surrounding context for the video. 


 Press SPACE to continue.",,,,,,,,,,,0,1,1,1,,,,,,,,,1.0522818001918495,,,,,,,,,,,,,13,2021_Apr_07_0810,Certainty Task-Joy,2021.1.2,59.887447496818794,
"You will also be instructed to take on a specific role while watching each video, in that you will be prompted to imagine yourself as having some relationship with the characters in the scene. 
You will be instructed to imagine that you are: 

 -a friend of the accused,

-a friend of the victim, or

 - a detective

While watching the video, please maintain this role. Press SPACE to continue.",,,,,,,,,,,0,2,2,2,,,,,,,,,0.334979800041765,,,,,,,,,,,,,13,2021_Apr_07_0810,Certainty Task-Joy,2021.1.2,59.887447496818794,
"We also ask that while watching the video, you make continuous judgments of your feelings toward the accused. Specifically, we ask you to evaluate how certain you are that the accused is innocent of the crime or guilty of the crime. 

These assessments tend to be flexible, and may shift upon hearing something the character says or seeing something the character does. We ask that you update your assessments at any point where your feelings of certainty of the character's guilt/innocence changes. 

Press SPACE to continue.",,,,,,,,,,,0,3,3,3,,,,,,,,,0.2008923999965191,,,,,,,,,,,,,13,2021_Apr_07_0810,Certainty Task-Joy,2021.1.2,59.887447496818794,
"You can use the left joystick on the controller to indicate how certain you feel in your evaluation. Please push the joystick upwards to indicate feelings that the character is innocent and downwards to indicate feelings that the character is guilty.

Pushing the joystick further up or down indicates that you're feeling more certain of a character's innocence or guilt, respectively.

Press SPACE to continue.",,,,,,,,,,,0,4,4,4,,,,,,,,,0.1802857001312077,,,,,,,,,,,,,13,2021_Apr_07_0810,Certainty Task-Joy,2021.1.2,59.887447496818794,
"The clips you will be watching are sourced from shows that have been streamed or broadcast on television. 
The clips may contain adult themes and graphic language. While these clips will portray a character accused of a violent crime, as well as verbal descriptions of the crime, the crimes themselves will not be shown, nor will any other graphic visual content. 

When you are ready to receive the background information for the first clip, press SPACE.",,,,,,,,,,,0,5,5,5,,,,,,,,,0.22346300026401877,,,,,,,,,,,,,13,2021_Apr_07_0810,Certainty Task-Joy,2021.1.2,59.887447496818794,
,The Undoing,TheUndoing_1_1.mp4,ElenaAlves.PNG,JonathanFraser.PNG,Elena Alves,Jonathan Fraser,A woman was found murdered. She was the parent of a child who attends the same school as the accused’s son. The accused is a doctor who has gone missing. ,,,,,,,,0,0,0,11,,,,,,1.4448409997858107,"Imagine that you are a 
friend of the victim",The Undoing,"['0', '0', '0', '0', '0', '0', '0', '0', '0', '0', '0', '0', '0', '0', '0', '0', '0', '0', '0', '0', '0', '0', '0', '0', '0', '0', '0', '0', '0', '0', '0', '0', '0', '0', '0', '0', '0', '0', '0', '0', '0', '0', '0', '0', '0', '0', '0', '0', '0', '0', '0', '0', '0', '0', '0', '0', '0', '0', '0', '0', '0', '0', '0', '0', '0', '0', '0', '0', '0', '0', '0', '0', '0', '0', '0', '0', '0', '0', '0', '0', '0', '0', '0', '0', '0', '0', '0', '0', '0', '0', '0', '0', '0', '0', '0', '0', '0', '0', '0', '0', '0', '0', '0', '0', '0', '0', '0', '0', '0', '0', '0', '0', '0', '0', '0', '0', '0', '0', '0', '0', '0', '0', '0', '0', '0', '0', '0', '0', '0', '0', '0', '0', '0', '0', '0', '0', '0', '0', '0', '0', '0', '0', '0', '0', '0', '0', '0', '0', '0', '0', '0', '0', '0', '0', '0', '0', '0', '0', '0', '0', '0', '0', '0', '0', '0', '0', '0', '0', '0', '0', '0', '0', '0', '0', '0', '0', '0', '0', '0', '0', '0', '0', '0', '0', '0', '0', '0', '0', '0', '0', '0', '0', '0', '0', '0', '0', '0', '0', '0', '0', '0', '0', '0', '0', '0', '0', '0', '0', '0', '0', '0', '0', '0', '0', '0', '0', '0', '0', '0', '0', '0', '0', '0', '0', '0', '0', '0', '0', '0', '0', '0', '0', '0', '0', '0', '0', '0', '0', '0', '0', '0', '0', '0', '0', '0', '0', '0', '0', '0', '0', '0', '0', '0', '0', '0', '0', '0', '0', '0', '0', '0', '0', '0', '0', '0', '0', '0', '0', '0', '0', '0', '0', '0', '0', '0', '0', '0', '0', '0', '0', '0', '0', '0', '0', '0', '0', '0', '0', '0', '0', '0', '0', '0', '0', '0', '0', '0', '0', '0', '0', '0', '0', '0', '0', '0', '0', '0', '0', '0', '0', '0', '0', '0', '0', '0', '0', '0', '0', '0', '0', '0', '0', '0', '0', '0', '0', '0', '0', '0', '0', '0', '0', '0', '0', '0', '0', '0', '0', '0', '0', '0', '0', '0', '0', '0', '0', '0', '0', '0', '0', '0', '0', '0', '0', '0', '0', '0', '0', '0', '0', '0', '0', '0', '0', '0', '0', '0', '0', '0', '0', '0', '0', '0', '0', '1', '2', '3', '4', '5', '6', '7', '8', '9', '10', '11', '12', '13', '14', '15', '16', '16', '16', '16', '16', '16', '16', '16', '16', '16', '16', '16', '16', '16', '16', '16', '16', '16', '16', '16', '16', '16', '16', '16', '16', '16', '16', '16', '16', '16', '16', '16', '16', '16', '16', '16', '16', '16', '16', '16', '16', '16', '16', '16', '16', '16', '16', '15', '14', '13', '12', '11', '11', '11', '11', '11', '11', '11', '11', '11', '11', '11', '11', '11', '11', '11', '11', '11', '11', '10', '9', '8', '7', '6', '5', '4', '3', '2', '2', '2', '2', '2', '2', '2', '2', '2', '2', '2', '2', '2', '2', '2', '2', '2', '2', '2', '2', '2', '2', '2', '2', '2', '2', '2', '2', '2', '2', '2', '2', '2', '2', '2', '2', '2', '2', '2', '2', '2', '2', '2', '2', '2', '2', '2', '2', '2', '2', '2', '2', '2', '2', '2', '2', '2', '2', '2', '2', '2', '2', '2', '2', '2', '2', '2', '2', '2', '2', '2', '2', '2', '2', '2', '2', '2', '2', '2', '2', '2', '2', '2', '2', '2', '2', '2', '2', '2', '2', '2', '2', '2', '2', '2', '2', '2', '2', '2', '2', '2', '2', '2', '2', '2', '2', '2', '2', '2', '2', '2', '2', '2', '2', '2', '2', '2', '2', '2', '2', '2', '2', '2', '2', '2', '2', '2', '2', '2', '2', '2', '2', '2', '2', '2', '2', '2', '2', '2', '2', '2', '2', '2', '2', '2', '2', '2', '2', '2', '2', '2', '2', '2', '2', '2', '2', '2', '2', '2', '2', '2', '2', '2', '2', '2', '2', '2', '2', '2', '2', '2', '1', '0', '0', -1, -2, -3, -3, -3, -3, -3, -3, -3, -3, -3, -3, -3, -3, -3, -3, -3, -3, -3, -3, -3, -3, -3, -3, -3, -3, -3, -3, -3, -3, -3, -3, -3, -3, -3, -3, -3, -3, -3, -3, -3, -3, -3, -3, -3, -3, -4, -5, -6, -7, -8, -9, -10, -10, -10, -10, -10, -10, -10, -10, -10, -10, -10, -10, -10, -10, -10, -10, -10, -10, -10, -10, -10, -10, -10, -10, -10, -10, -10, -10, -10, -10, -10, -10, -10, -10, -10, -10, -10, -10, -10, -10, -10, -10, -10, -10, -10, -11, -12, -13, -14, -15, -16, -17, -18, -19, -20, -21, -22, -23, -24, -25, -26, -27, -28, -29, -30, -31, -32, -33, -34, -35, -36, -37, -38, -39, -40, -41, -42, -43, -44, -45, -46, -46, -46, -46, -46, -46, -46, -46, -46, -46, -46, -46, -46, -46, -46, -46, -46, -46, -46, -46, -46, -46, -46, -46, -46, -46, -46, -46, -46, -46, -46, -46, -46, -46, -46, -46, -46, -46, -46, -46, -46, -46, -46, -46, -46, -46, -46, -46, -46, -46, -46, -46, -46, -46, -46, -46, -47, -48, -49, -50, -51, -52, -53, -54, -54, -54, -54, -54, -54, -54, -54, -54, -54, -54, -54, -54, -54, -54, -54, -54, -54, -54, -54, -54, -54, -54, -54, -54, -54, -54, -54, -54, -54, -54, -54, -54, -54, -54, -54, -54, -54, -54, -54, -54, -54, -54, -54, -54, -54, -54, -54, -54, -54, -54, -54, -54, -54, -54, -54, -54, -54, -54, -54, -54, -53, -52, -51, -50, -49, -48, -47, -46, -45, -44, -43, -42, -41, -40, -39, -38, -37, -36, -35, -34, -33, -32, -32, -32, -32, -32, -32, -32, -32, -32, -32, -32, -31, -30, -29, -28, -27, -26, -25, -24, -23, -22, -21, -20, -19, -18, -17, -16, -15, -14, -13, -13, -13, -13, -13, -13, -13, -13, -13, -13, -13, -13, -13, -13, -13, -13, -13, -13, -13, -13, -13, -13, -13, -13, -13, -13, -13, -13, -13, -13, -13, -13, -13, -13, -13, -12, -11, -10, -9, -8, -7, -7, -7, -7, -7, -7, -7, -7, -7, -7, -7, -7, -7, -7, -7, -7, -7, -7, -7, -7, -7, -7, -7, -7, -6, -5, -4, -3, -2, -1, '2', '2', '2', '2', '2', '2', '2', '2', '2', '2', '2', '2', '2', '2', '2', '2', '2', '2', '2', '2', '2', '2', '2', '2', '2', '2', '2', '2', '2', '2', '2', '2', '2', '2', '2', '2', '2', '2', '2', '2', '2', '2', '2', '2', '2', '2', '2', '2', '2', '2', '2', '2', '2', '2', '2', '2', '2', '2', '2', '2', '2', '2', '2', '2', '2', '2', '2', '2', '3', '4', '5', '6', '7', '8', '9', '10', '11', '11', '11', '11', '11', '11', '11', '11', '11', '11', '11', '11', '11', '11', '11', '11', '11', '11', '11', '11', '11', '11', '11', '11', '11', '11', '11', '11', '11', '11', '11', '11', '11', '11', '11', '11', '11', '11', '11', '11', '11', '11', '11', '11', '11', '11', '11', '11', '11', '11', '11', '11', '11', '11', '11', '11', '11', '10', '9', '8', '7', '6', '5', '4', '3', '3', '3', '3', '3', '3', '3', '3', '3', '3', '3', '3', '3', '3', '3', '3', '3', '3', '3', '3', '3', '3', '3', '3', '3', '3', '3', '3', '3', '3', '3', '3', '3', '3', '3', '3', '3', '3', '3', '3', '3', '3', '3', '3', '3', '3', '3', '3', '3', '3', '3', '3', '3', '3', '3', '3', '3', '3', '3', '3', '3', '3', '3', '3', '3', '3', '3', '3', '3', '3', '2', -3, -4, -5, -6, -6, -6, -6, -6, -6, -6, -6, -6, -6, -6, -6, -6, -6, -6, -6, -6, -6, -6, -6, -6, -6, -6, -6, -6, -6, -6, -6, -6, -6, -6, -6, -6, -6, -6, -6, -6, -6, -6, -6, -6, -6, -6, -6, -6, -6, -6, -6, -6, -6, -6, -6, -6, -6, -6, -6, -6, -5, -4, -3, '4', '5', '6', '7', '8', '9', '10', '11', '12', '13', '14', '15', '16', '17', '18', '19', '20', '21', '22', '23', '24', '25', '26', '27', '28', '29', '30', '31', '32', '33', '33', '33', '33', '33', '33', '33', '33', '33', '33', '33', '33', '33', '33', '33', '33', '33', '33', '33', '33', '33', '33', '33', '33', '33', '33', '33', '34', '35', '36', '37', '38', '39', '40', '41', '42', '43', '44', '45', '46', '47', '48', '49', '50', '51', '52', '53', '54', '54', '54', '54', '54', '54', '54', '54', '54', '54', '54', '54', '54', '54', '54', '54', '54', '54', '54', '54', '54', '54', '54', '54', '54', '54', '54', '54', '54', '54', '54', '54', '54', '54', '54', '54', '54', '54', '54', '54', '54', '54', '54', '54', '54', '54', '54', '54', '54', '54', '54', '54', '54', '54', '54', '54', '54', '54', '54', '54', '54', '54', '54', '54', '54', '54', '54', '54', '54', '54', '54', '54', '54', '54', '54', '54', '54', '54', '54', '54', '54', '54', '54', '54', '54', '54', '54', '54', '54', '54', '54', '54', '54', '55', '56', '57', '58', '59', '60', '61', '62', '63', '64', '65', '66', '67', '68', '69', '70', '71', '72', '73', '74', '75', '76', '77', '78', '79', '80', '80', '80', '80', '80', '80', '80', '80', '80', '80', '80', '80', '80', '80', '80', '80', '80', '80', '80', '80', '80', '80', '80', '80', '80', '80', '80', '80', '80', '80', '80', '80', '80', '80', '80', '80', '80', '80', '80', '80', '80', '80', '81', '82', '83', '84', '85', '86', '87', '88', '89', '90', '91', '92', '93', '94', '94', '94', '94', '94', '94', '94', '94', '94', '94', '94', '94', '94', '94', '94', '94', '94', '94', '94', '94', '94', '94', '94', '94', '94', '94', '94', '94', '94', '94', '94', '94', '94', '94', '94', '94', '94', '94', '94', '94', '94', '94', '94', '94', '94', '94', '94', '94', '94', '94', '94', '94', '95', '96', '97', '98', '99', '100', '100', '100', '100', '100', '100', '100', '100', '100', '100', '100', '100', '100', '100', '100', '100', '100', '100', '100', '100', '100', '100', '100', '100', '100', '100', '100', '100', '100', '100', '100', '100', '100', '100', '100', '100', '100', '100', '100', '100', '100', '100', '100', '100', '100', '100', '99', '98', '97', '96', '95', '94', '93', '92', '91', '90', '89', '88', '87', '86', '85', '84', '83', '82', '81', '80', '79', '79', '79', '79', '79', '79', '79', '79', '79', '79', '79', '79', '79', '79', '79', '79', '79', '79', '79', '79', '79', '79', '79', '79', '79', '79', '79', '79', '79', '79', '79', '79', '79', '79', '79', '79', '79', '79', '79', '78', '77', '76', '75', '74', '73', '72', '71', '70', '69', '68', '67', '66', '65', '64', '63', '62', '61', '60', '60', '60', '60', '60', '60', '60', '60', '60', '60', '60', '60', '60', '60', '60', '60', '60', '60', '60', '60', '60', '60', '60', '60', '60', '59', '58', '57', '56', '55', '54', '53', '52', '52', '52', '52', '52', '52', '52', '52', '52', '52', '52', '52', '52', '52', '52', '52', '52', '52', '52', '52', '52', '52', '52', '52', '52', '52', '52', '52', '52', '52', '52', '52', '52', '52', '52', '52', '52', '52', '52', '52', '52', '52', '52', '52', '52', '52', '52', '52', '52', '52', '52', '52', '52', '52', '52', '52', '52', '52', '52', '52', '52', '52', '52', '52', '52', '52', '52', '52', '52', '52', '52', '52', '51', '50', '49', '48', '47', '46', '45', '44', '43', '42', '41', '40', '39', '38', '37', '36', '35', '34', '33', '32', '31', '30', '29', '28', '27', '26', '25', '24', '23', '22', '21', '20', '19', '18', '17', '16', '15', '15', '15', '15', '15', '15', '15', '15', '15', '15', '15', '15', '15', '15', '15', '15', '15', '15', '15', '15', '15', '15', '15', '15', '15', '15', '15', '15', '15', '14', '13', '12', '11', '10', '9', '8', '7', '6', '5', '4', '3', '3', '3', '3', '3', '3', '3', '3', '3', '3', '3', '3', '3', '3', '3', '3', '3', '3', '3', '3', '3', '3', '3', '3', '3', '3', '3', '3', '3', '3', '3', '3', '3', '3', '3', '3', '3', '3', '3', '3', '3', '3', '3', '3', '2', '1', -2, -3, -4, -5, -6, -6, -6, -6, -6, -6, -6, -6, -6, -6, -6, -6, -6, -6, -6, -6, -6, -6, -6, -6, -6, -6, -6, -6, -6, -6, -6, -6, -6, -6, -6, -6, -6, -6, -6, -7, -8, -9, -10, -11, -12, -13, -14, -15, -15, -15, -15, -15, -15, -15, -15, -15, -15, -15, -15, -15, -15, -15, -15, -15, -15, -15, -15, -15, -15, -15, -15, -15, -15, -15, -15, -15, -15, -15, -15, -15, -15, -15, -15, -15, -16, -17, -18, -19, -20, -21, -22, -23, -24, -25, -26, -27, -28, -29, -30, -31, -32, -33, -34, -35, -36, -37, -38, -39, -40, -41, -42, -43, -44, -45, -46, -47, -48, -49, -50, -51, -52, -53, -53, -53, -53, -53, -53, -53, -53, -53, -53, -53, -53, -53, -53, -53, -53, -53, -53, -53, -53, -53, -53, -53, -53, -53, -53, -53, -53, -53, -53, -53, -53, -53, -53, -53, -53, -53, -53, -53, -53, -53, -53, -53, -53, -53, -53, -52, -51, -50, -49, -48, -47, -46, -45, -44, -43, -42, -41, -40, -39, -38, -37, -36, -35, -34, -33, -32, -31, -30, -29, -28, -27, -26, -25, -24, -23, -22, -21, -20, -19, -18, -17, -16, -15, -14, -13, -12, -11, -10, -9, -8, -7, -6, -5, -4, -3, -3, -3, -3, -3, -3, -3, -3, -3, -3, -3, -3, -3, -3, -3, -3, -3, -3, -3, -3, -3, -3, -3, -3, -3, -3, -3, -3, -3, -3, -3, -3, -3, -3, -3, -3, -3, -3, -3, -3, -3, -3, -3, -3, -3, -3, -3, -3, -3, -3, -3, -3, -3, -3, -3, -3, -3, -3, -3, -3, -3, -3, -3, -3, -3, -3, -3, -3, -3, -3, -3, -3, -3, -3, -3, -3, -3, -3, -3, -3, -3, -3, -3, -3, -3, -3, -3, -3, -3, -3, -3, -3, -3, -3, -3, -3, -3, -3, -3, -3, -3, -3, -2, '3', '4', '5', '6', '7', '7', '7', '7', '7', '7', '7', '7', '7', '7', '7', '7', '7', '7', '7', '7', '7', '7', '7', '7', '7', '7', '7', '7', '7', '7', '7', '7', '7', '7', '7', '7', '7', '7', '7', '7', '7', '7', '7', '7', '7', '7', '7', '7', '7', '7', '7', '7', '7', '7', '7', '7', '7', '7', '7', '6', '5', '4', '3', -4, -5, -6, -6, -6, -6, -6, -6, -6, -6, -6, -6, -6, -6, -6, -6, -6, -6, -6, -6, -6, -6, -6, -6, -6, -6, -6, -6, -6, -6, -6, -6, -6, -6, -6, -6, -6, -6, -6, -6, -6, -6, -6, -6, -6, -6, -6, -6, -6, -6, -6, -6, -6, -6, -6, -6, -6, -6, -6, -6, -6, -6, -6, -6, -6, -6, -7, -8, -9, -9, -9, -9, -9, -9, -9, -9, -9, -9, -9, -9, -9, -9, -10, -11, -12, -13, -14, -15, -16, -17, -18, -19, -20, -21, -22, -23, -24, -25, -26, -27, -28, -29, -30, -31, -32, -33, -34, -35, -36, -37, -38, -39, -40, -41, -42, -43, -44, -45, -46, -47, -48, -49, -50, -51, -52, -53, -54, -55, -56, -57, -58, -59, -60, -61, -62, -63, -64, -65, -66, -67, -68, -69, -70, -71, -72, -73, -74, -75, -76, -77, -78, -79, -80, -81, -82, -83, -84, -85, -86, -87, -88, -89, -90, -91, -92, -93, -94, -95, -96, -97, -98, -99, -100, -100, -100, -100, -100, -100, -100, -100, -100, -100, -100, -100, -100, -100, -100, -100, -100, -100, -100, -100, -100, -100, -100, -100, -100, -100, -100, -100, -100, -100, -100, -100, -100, -100, -100, -100, -100, -99, -98, -97, -96, -95, -94, -93, -92, -91, -90, -89, -88, -87, -86, -85, -84, -83, -82, -81, -80, -79, -78, -77, -76, -75, -74, -73, -72, -71, -70, -69, -68, -67, -66, -65, -64, -63, -62, -61, -60, -59, -58, -57, -56, -55, -54, -53, -52, -51, -50, -49, -48, -47, -46, -45, -44, -43, -42, -41, -40, -39, -38, -37, -36, -35, -34, -33, -32, -31, -30, -29, -28, -27, -26, -25, -24, -23, -22, -21, -20, -19, -18, -17, -16, -15, -14, -13, -12, -11, -10, -9, -8, -7, -6, -5, -4, -3, -2, -2, -2, -2, -2, -2, -2, -2, -2, -2, -2, -2, -2, -2, -2, -2, -2, -2, -2, -2, -2, -2, -2, -2, -2, -2, -2, -2, -2, -2, -2, -2, -2, -2, -2, -2, -2, -2, -2, -2, -2, -2, -2, -2, -2, -2, -2, -2, -2, -2, -2, -2, -2, -2, -2, -2, -2, -2, -2, -2, -2, -2, -2, -2, -2, -2, -2, -2, -2, -2, -2, -2, -2, -2, -2, -2, -2, -2, -2, -2, -2, -2, -2, -2, -2, -2, -2, -2, -2, -2, -2, -2, -2, -2, -2, -2, -2, -2, -2, -2, -2, -2, -2, -2, -2, -2, -2, -2, -2, -2, -2, -2, -2, -2, -2, -2, -2, -2, -2, -2, -2, -2, -2, -2, -2, -2, -2, -2, -2, -2, -2, -2, -2, -2, -2, -2, -2, -2, -2, -2, -2, -2, -2, -2, -2, -2, -2, -2, -2, -2, -2, -2, -2, -2, -2, -2, -2, -2, -2, -2, -2, -2, -2, -2, -2, -2, -2, -2, -2, -2, -2, -2, -2, -2, -2, -2, -2, -2, -2, -2, -2, -2, -2, -2, -2, -2, -2, -2, -2, -2, -2, -2, -2, -2, -2, -2, -2, -2, -2, -2, -2, -2, -2, -2, -2, -2, -2, -2, -2, -2, -2, -2, -2, -2, -2, -2, -2, -2, -2, -2, -2, -2, -2, -2, -2, -2, -2, -2, -2, -2, -2, -2, -2, -2, -2, -2, -2, -2, -2, -2, -2, -2, -2, -2, -2, -2, -2, -2, -2, -2, -2, -2, -2, -2, -2, -2, -2, -2, -2, -2, -2, -2, -2, -2, -2, -2, -2, -2, -2, -2, -2, -2, -2, -2, -2, -2, -2, -2, -2, -2, -2, -2, -2, -2, -2, -2, -2, -2, -2, -2, -2, -2, -2, -2, -2, -2, -2, -2, -2, -2, -2, -2, -2, -2, -2, -2, -2, -2, -2, -2, -2, -2, -2, -2, -2, -2, -2, -2, -2, -2, -2, -2, -2, -2, -2, -2, -2, -2, -2, -2, -2, -2, -2, -2, -2, -2, -2, -2, -2, -2, -2, -2, -2, -2, -2, -2, -2, -2, -2, -2, -2, -2, -2, -2, -2, -2, -2, -2, -2, -2, -2, -2, -2, -2, -2, -2, -2, -2, -2, -2, -2, -2, -2, -2, -2, -2, -2, -2, -2, -2, -2, -2, -2, -2, -2, -2, -2, -2, -2, -2, -2, -2, -2, -2, -2, -2, -2, -2, -2, -2, -2, -2, -2, -2, -2, -2, -2, -2, -2, '3', '4', '5', '6', '7', '7', '7', '7', '7', '7', '7', '7', '7', '7', '7', '7', '7', '7', '7', '7', '7', '7', '7', '7', '7', '7', '7', '7', '7', '7', '7', '7', '7', '7', '7', '7', '7', '7', '7', '7', '7', '7', '7', '7', '7', '7', '7', '7', '7', '7', '7', '7', '7', '7', '7', '7', '7', '7', '7', '7', '7', '7', '7', '7', '7', '7', '7', '7', '7', '7', '7', '7', '7', '7', '7', '7', '7', '7', '7', '7', '7', '7', '8', '9', '10', '11', '12', '13', '14', '15', '16', '17', '18', '19', '20', '21', '22', '23', '24', '24', '24', '24', '24', '24', '24', '24', '24', '24', '24', '24', '24', '24', '24', '24', '24', '24', '24', '24', '24', '24', '24', '24', '24', '24', '24', '24', '24', '24', '24', '24', '24', '24', '24', '24', '24', '24', '24', '24', '24', '24', '24', '24', '24', '24', '24', '25', '26', '27', '28', '29', '30', '31', '32', '33', '34', '35', '36', '37', '38', '39', '40', '41', '42', '43', '44', '45', '46', '47', '47', '47', '47', '47', '47', '47', '47', '47', '47', '47', '47', '47', '47', '47', '47', '47', '47', '47', '47', '47', '47', '47', '47', '47', '47', '47', '47', '47', '47', '47', '47', '47', '47', '47', '47', '47', '47', '47', '47', '48', '49', '50', '51', '52', '52', '52', '52', '52', '52', '52', '52', '52', '52', '52', '52', '52', '52', '52', '52', '52', '52', '52', '52', '52', '52', '52', '52', '52', '52', '52', '52', '52', '52', '52', '52', '52', '52', '52', '52', '52', '52', '52', '52', '52', '52', '52', '52', '52', '52', '52', '52', '52', '52', '52', '52', '52', '52', '52', '52', '52', '52', '52', '52', '51', '50', '49', '48', '47', '46', '45', '44', '43', '42', '41', '40', '39', '38', '37', '36', '35', '34', '33', '32', '31', '30', '29', '28', '27', '26', '25', '24', '23', '22', '21', '20', '19', '18', '17', '16', '15', '14', '13', '12', '11', '10', '10', '10', '10', '10', '10', '10', '10', '10', '10', '10', '10', '10', '10', '10', '10', '10', '10', '10', '10', '10', '10', '10', '10', '9', '8', '7', '6', '5', '4', '3', -4, -4, -4, -4, -4, -4, -4, -4, -4, -4, -4, -4, -4, -4, -4, -4, -4, -4, -4, -4, -4, -4, -4, -4, -4, -4, -4, -4, -4, -4, -4, -4, -4, -4, -4, -4, -4, -4, -4, -4, -4, -4, -4, -4, -4, -4, -4, -4, -4, -4, -4, -4, -4, -4, -4, -4, -4, -4, -4, -4, -4, -4, -4, -4, -4, -4, -4, -4, -4, -4, -4, -4, -4, -4, -4, -4, '5', '6', '7', '8', '9', '10', '11', '11', '11', '11', '11', '11', '11', '11', '11', '11', '11', '11', '11', '11', '11', '11', '11', '11', '11', '11', '11', '11', '11', '11', '11', '11', '11', '11', '11', '11', '11', '11', '11', '11', '11', '11', '11', '11', '11', '10', '9', '8', '7', '6', '5', -6, -6, -6, -6, -6, -6, -6, -6, -6, -6, -6, -6, -6, -6, -6, -6, -6, -6, -6, -6, -6, -6, -6, -6, -6, -6, -6, -6, -6, -6, -6, -6, -6, -6, -6, -6, -6, -6, -6, -6, -6, -6, -6, -6, -6, -6, -6, -6, -6, -6, -6, -6, -6, -6, -6, -6, -6, -6, -6, -6, -6, -6, -6, -6, -6, -6, -6, -6, -6, -7, -8, -9, -10, -11, -12, -13, -14, -15, -16, -17, -18, -19, -20, -21, -22, -23, -24, -25, -26, -27, -28, -29, -30, -31, -32, -33, -34, -35, -36, -37, -38, -39, -40, -41, -42, -43, -44, -45, -46, -47, -48, -49, -50, -51, -51, -51, -51, -51, -51, -51, -51, -51, -51, -51, -51, -51, -51, -51, -51, -51, -51, -51, -51, -51, -51, -51, -51, -51, -51, -51, -51, -51, -51, -51, -51, -51, -51, -51, -51, -51, -51, -51, -51, -51, -51, -51, -52, -53, -54, -55, -56, -57, -58, -58, -58, -58, -58, -58, -58, -58, -58, -58, -58, -58, -58, -58, -58, -58, -58, -58, -58, -58, -58, -58, -58, -58, -58, -58, -58, -58, -58, -58, -58, -58, -58, -58, -58, -58, -58, -58, -58, -57, -56, -55, -54, -53, -52, -51, -50, -49, -48, -47, -46, -45, -44, -43, -42, -41, -40, -39, -38, -37, -36, -35, -34, -33, -32, -31, -30, -29, -28, -27, -26, -25, -24, -23, -22, -21, -20, -19, -19, -19, -19, -19, -19, -19, -19, -19, -19, -19, -19, -19, -19, -19, -19, -19, -19, -19, -19, -19, -19, -19, -19, -19, -19, -19, -19, -19, -19, -19, -19, -19, -19, -19, -19, -19, -19, -19, -19, -19, -19, -19, -19, -19, -18, -17, -16, -15, -14, -13, -12, -11, -11, -11, -11, -11, -11, -11, -11, -11, -11, -11, -11, -11, -11, -11, -11, -11, -11, -11, -11, -11, -11, -11, -11, -11, -11, -11, -11, -11, -11, -11, -11, -11, -11, -11, -11, -11, -11, -11, -11, -11, -11, -11, -11, -11, -11, -11, -11, -11, -11, -11, -11, -11, -11, -11, -11, -11, -11, -11, -11, -11, -11, -11, -11, -11, -11, -11, -11, -10, -9, -8, -8, -8, -8, -8, -8, -8, -8, -8, -8, -8, -8, -8, -8, -8, -8, -8, -8, -8, -8, -8, -8, -8, -8, -8, -8, -8, -8, -8, -8, -8, -8, -8, -8, -8, -8, -8, -8, -8, -8, -8, -8, -8, -8, -8, -8, -8, -8, -8, -8, -8, -8, -8, -8, -8, -8, -8, -8, -8, -8, -8, -8, -8, -8, -8, -8, -8, -8, -8, -8, -8, -8, -8, -8, -8, -8, -8, -8, -8, -8, -8, -8, -8, -8, -8, -8, -8, -8, -8, -8, -8, -8, -8, -8, -8, -8, -8, -8, -8, -8, -8, -8, -8, -8, -8, -8, -8, -8, -8, -8, -8, -8, -8, -8, -8, -8, -8, -8, -8, -8, -8, -8, -8, -8, -8, -8, -8, -8, -8, -8, -8, -8, -8, -8, -8, -8, -8, -8, -8, -8, -8, -8, -8, -8, -8, -8, -8, -8, -8, -8, -7, -6, '7', '8', '9', '10', '11', '12', '13', '13', '13', '13', '13', '13', '13', '13', '13', '13', '13', '13', '13', '13', '13', '13', '13', '13', '13', '13', '13', '13', '13', '13', '13', '13', '13', '13', '13', '13', '13', '13', '13', '13', '13', '13', '13', '13', '13', '13', '13', '13', '13', '13', '13', '13', '13', '13', '13', '13', '13', '13', '13', '13', '13', '13', '13', '13', '14', '15', '16', '17', '18', '19', '20', '21', '22', '23', '24', '25', '26', '27', '28', '29', '30', '31', '32', '32', '32', '32', '32', '32', '32', '32', '32', '32', '32', '32', '32', '32', '32', '32', '32', '32', '32', '32', '32', '32', '32', '32', '32', '32', '32', '32', '32', '32', '32', '32', '32', '32', '32', '32', '32', '32', '32', '32', '32', '32', '32', '32', '32', '32', '32', '32', '32', '32', '32', '33', '34', '35', '36', '37', '38', '39', '40', '41', '42', '43', '44', '45', '46', '47', '48', '49', '50', '51', '52', '53', '54', '55', '56', '56', '56', '56', '56', '56', '56', '56', '56', '56', '56', '56', '56', '56', '56', '56', '56', '56', '56', '56', '56', '56', '56', '56', '56', '56', '56', '56', '56', '56', '56', '56', '56', '56', '56', '56', '56', '56', '56', '56', '56', '56', '56', '56', '56', '56', '56', '56', '56', '56', '55', '54', '53', '52', '51', '50', '49', '48', '47', '46', '46', '46', '46', '46', '46', '46', '46', '46', '46', '46', '46', '46', '46', '46', '46', '46', '46', '46', '46', '46', '46', '46', '46', '45', '44', '43', '42', '41', '40', '39', '38', '37', '37', '37', '37', '37', '37', '37', '37', '37', '37', '37', '37', '36', '35', '34', '33', '32', '31', '31', '31', '31', '31', '31', '31', '31', '31', '31', '31', '31', '31', '31', '31', '31', '31', '31', '31', '31', '31', '31', '31', '31', '31', '31', '31', '31', '31', '31', '31', '31', '31', '31', '31', '31', '31', '31', '31', '31', '31', '31', '31', '31', '31', '31', '31', '31', '31', '30', '29', '28', '27', '26', '25', '24', '23', '23', '23', '23', '23', '23', '23', '23', '23', '23', '23', '23', '23', '23', '22', '21', '20', '19', '18', '17', '17', '17', '17', '17', '17', '17', '17', '17', '17', '17', '17', '17', '17', '17', '17', '17', '17', '17', '17', '17', '17', '17', '17', '17', '17', '17', '17', '16', '15', '14', '13', '12', '11', '10', '9', '8', '8', '8', '8', '8', '8', '8', '8', '8', '8', '8', '8', '8', '8', '8', '8', '8', '8', '8', '8', '8', '8', '8', '8', '8', '8', '8', '8', '8', '8', '8', '8', '8', '8', '8', '8', '8', '8', '8', '8', '8', '8', '8', '8', '8', '8', '8', '8', '8', '8', '8', '8', '8', '8', '8', '8', '8', '8', '8', '8', '8', '8', '8', '8', '8', '8', '8', '8', '8', '8', '7', -8, -9, -10, -11, -12, -13, -14, -15, -16, -17, -18, -19, -20, -20, -20, -20, -20, -20, -20, -20, -20, -20, -20, -20, -20, -20, -20, -20, -20, -20, -20, -20, -20, -20, -20, -20, -20, -20, -20, -20, -20, -20, -20, -20, -20, -20, -20, -20, -20, -20, -20, -20, -20, -20, -20, -20, -20, -20, -20, -20, -20, -20, -20, -20, -20, -20, -20, -20, -20, -20, -20, -20, -20, -20, -20, -20, -20, -20, -20, -20, -20, -20, -20, -20, -20, -20, -20, -20, -20, -20, -20, -20, -20, -20, -20, -20, -20, -20, -20, -20, -20, -20, -20, -20, -20, -20, -20, -20, -20, -20, -20, -21, -22, -23, -24, -25, -26, -27, -28, -29, -30, -31, -32, -33, -34, -35, -36, -36, -36, -36, -36, -36, -36, -36, -36, -36, -36, -36, -36, -36, -36, -36, -36, -36, -36, -36, -36, -36, -36, -36, -36, -36, -36, -36, -36, -36, -36, -36, -36, -36, -36, -36, -36, -36, -36, -36, -36, -36, -36, -36, -36, -36, -36, -36, -36, -36, -36, -36, -36, -36, -36, -36, -37, -38, -39, -40, -41, -42, -43, -44, -45, -46, -47, -48, -49, -50, -51, -52, -52, -52, -52, -52, -52, -52, -52, -52, -52, -52, -52, -52, -52, -52, -52, -52, -52, -52, -52, -52, -52, -52, -52, -52, -52, -52, -52, -52, -52, -52, -52, -52, -52, -52, -52, -52, -52, -52, -52, -52, -52, -52, -52, -52, -52, -52, -52, -52, -53, -54, -55, -56, -57, -58, -59, -60, -61, -62, -63, -64, -65, -66, -67, -68, -69, -70, -71, -72, -73, -74, -75, -76, -77, -78, -79, -80, -81, -82, -83, -84, -85, -86, -87, -88, -89, -90, -91, -92, -93, -94, -95, -96, -97, -98, -99, -100, -100, -100, -100, -100, -100, -100, -100, -100, -100, -100, -100, -100, -100, -100, -100, -100, -100, -100, -100, -100, -100, -100, -100, -100, -100, -100, -100, -100, -100, -100, -100, -100, -100, -100, -100, -100, -100, -100, -100, -100, -100, -100, -100, -100, -100, -100, -100, -100, -100, -100, -100, -100, -100, -100, -100, -100, -100, -100, -100, -100, -100, -100, -100, -100, -99, -98, -97, -96, -95, -94, -93, -92, -91, -90, -89, -88, -87, -86, -85, -84, -83, -82, -81, -80, -79, -78, -77, -76, -75, -74, -73, -72, -71, -70, -69, -68, -67, -66, -65, -64, -63, -62, -61, -60, -59, -58, -57, -56, -55, -54, -53, -52, -51, -50, -50, -50, -50, -50, -50, -50, -50, -50, -50, -50, -50, -50, -50, -50, -50, -50, -50, -50, -50, -50, -50, -50, -50, -50, -50, -50, -50, -50, -50, -50, -50, -50, -50, -50, -50, -50, -50, -50, -50, -50, -50, -49, -48, -47, -46, -45, -44, -43, -42, -41, -40, -39, -38, -37, -36, -35, -34, -33, -32, -31, -30, -29, -28, -27, -26, -25, -25, -25, -25, -25, -25, -25, -25, -25, -25, -25, -25, -25, -25, -25, -25, -25, -25, -25, -25, -25, -25, -25, -25, -25, -25, -25, -25, -25, -25, -25, -25, -25, -25, -25, -25, -25, -25, -25, -25, -25, -25, -25, -25, -25, -25, -25, -25, -25, -25, -25, -25, -25, -25, -25, -25, -25, -25, -25, -25, -25, -25, -25, -25, -25, -25, -25, -25, -25, -25, -25, -25, -25, -25, -25, -25, -25, -25, -25, -25, -25, -25, -25, -25, -25, -24, -23, -22, -21, -20, -19, -18, -17, -16, -15, -14, -14, -14, -14, -14, -14, -14, -14, -14, -14, -14, -14, -14, -14, -14, -14, -14, -14, -14, -14, -14, -14, -14, -14, -14, -14, -14, -14, -14, -14, -14, -14, -14, -14, -14, -14, -14, -14, -14, -14, -14, -14, -13, -12, -11, -10, -9, -8, -7, -6, -5, -4, -4, -4, -4, -4, -4, -4, -4, -4, -4, -4, -4, -4, -4, -4, -4, -4, -4, -4, -4, -4, -4, -4, -4, -4, -4, -4, -4, -4, -4, -4, -4, -4, -4, -4, -4, -4, -4, -4, -4, -4, -4, -4, -4, -4, -4, -4, -4, -4, -4, -4, -4, -4, -4, -4, -4, -4, -4, -4, -4, -4, -4, -4, -4, -4, -4, -4, -4, -4, -4, -4, -4, -4, -4, -4, -4, -4, -4, -4, -4, -4, -4, -4, -4, -4, -4, -4, -4, -4, -4, -4, -4, -4, -4, -4, -4, -4, -4, -4, -4, -4, -4, -4, -4, -4, -4, -4, -4, -3, -2, '3', '4', '5', '5', '5', '5', '5', '5', '5', '5', '5', '5', '5', '5', '5', '5', '5', '5', '5', '5', '5', '5', '5', '5', '5', '5', '5', '5', '5', '5', '5', '5', '5', '5', '5', '5', '5', '5', '5', '5', '5', '5', '5', '5', '5', '5', '5', '5', '5', '5', '5', '5', '5', '5', '5', '5', '5', '5', '5', '5', '5', '5', '5', '5', '5', '5', '5', '5', '5', '5', '5', '5', '5', '5', '5', '5', '6', '7', '8', '9', '10', '11', '12', '13', '14', '15', '16', '17', '18', '18', '18', '18', '18', '18', '18', '18', '18', '18', '18', '18', '18', '18', '18', '18', '18', '18', '18', '18', '18', '18', '18', '18', '18', '18', '18', '18', '18', '18', '18', '18', '18', '18', '18', '18', '18', '18', '18', '18', '18', '18', '18', '18', '18', '19', '20', '21', '22', '23', '24', '25', '26', '27', '28', '29', '30', '30', '30', '30', '30', '30', '30', '30', '30', '30', '30', '30', '30', '30', '30', '30', '30', '30', '30', '30', '30', '30', '30', '30', '30', '30', '30', '30', '30', '30', '30', '30', '30', '30', '30', '30', '30', '30', '30', '30', '30', '30', '31', '32', '33', '34', '35', '36', '37', '38', '39', '40', '41', '42', '43', '44', '45', '45', '45', '45', '45', '45', '45', '45', '45', '45', '45', '45', '45', '45', '45', '45', '45', '45', '45', '45', '45', '45', '45', '46', '47', '48', '49', '50', '51', '52', '53', '53', '53', '53', '53', '53', '53', '53', '53', '53', '53', '53', '53', '53', '53', '53', '53', '53', '53', '53', '53', '53', '53', '53', '53', '53', '53', '53', '53', '53', '53', '53', '53', '53', '53', '53', '53', '53', '53', '53', '53', '53', '53', '53', '53', '53', '53', '53', '53', '53', '53', '53', '53', '53', '53', '53', '53', '53', '53', '53', '53', '53', '53', '53', '53', '53', '53', '53', '53', '53', '53', '53', '53', '53', '53', '53', '53', '53', '53', '53', '53', '53', '53', '53', '53', '53', '53', '53', '53', '53', '53', '54', '55', '56', '57', '58', '59', '60', '61', '62', '63', '64', '65', '66', '67', '68', '69', '70', '71', '72', '72', '72', '72', '72', '72', '72', '72', '72', '72', '72', '72', '72', '72', '72', '72', '72', '72', '72', '72', '72', '72', '72', '72', '72', '72', '72', '72', '72', '72', '72', '72', '72', '72', '72', '72', '73', '74', '75', '76', '77', '78', '79', '80', '81', '82', '83', '84', '85', '86', '87', '87', '87', '87', '87', '87', '87', '87', '87', '87', '87', '87', '87', '87', '87', '87', '87', '87', '87', '87', '87', '87', '87', '87', '87', '87', '87', '87', '87', '87', '87', '87', '87', '87', '87', '87', '87', '87', '87', '87', '87', '87', '87', '86', '85', '84', '83', '82', '81', '80', '79', '78', '77', '76', '75', '74', '73', '72', '71', '70', '70', '70', '70', '70', '70', '70', '70', '70', '70', '70', '70', '70', '70', '70', '70', '70', '70', '70', '70', '70', '70', '70', '70', '69', '68', '67', '66', '65', '64', '63', '62', '61', '60', '59', '59', '59', '59', '59', '59', '59', '59', '59', '59', '59', '59', '59', '59', '59', '59', '58', '57', '56', '55', '54', '53', '52', '51', '50', '49', '48', '47', '46', '46', '46', '46', '46', '46', '46', '46', '46', '46', '46', '46', '46', '46', '46', '46', '46', '46', '46', '46', '46', '46', '46', '46', '46', '46', '46', '46', '46', '45', '44', '43', '42', '41', '40', '39', '38', '38', '38', '38', '38', '38', '38', '38', '38', '38', '38', '38', '38', '38', '38', '38', '38', '38', '38', '38', '38', '38', '38', '38', '38', '38', '38', '38', '38', '38', '38', '38', '38', '38', '38', '38', '37', '36', '35', '34', '33', '32', '31', '30', '29', '29', '29', '29', '29', '29', '29', '29', '29', '29', '29', '29', '29', '29', '29', '29', '29', '29', '29', '29', '29', '29', '29', '29', '29', '29', '29', '29', '29', '29', '29', '29', '29', '29', '29', '29', '29', '29', '29', '29', '29', '29', '29', '29', '29', '29', '28', '27', '26', '25', '24', '23', '22', '21', '20', '20', '20', '20', '20', '20', '20', '20', '20', '20', '20', '20', '20', '20', '20', '20', '20', '20', '20', '20', '20', '19', '18', '17', '16', '15', '14', '13', '13', '13', '13', '13', '13', '13', '13', '13', '13', '13', '13', '13', '13', '13', '13', '13', '13', '13', '13', '13', '13', '13', '13', '13', '12', '11', '10', '9', '8', '7', '6', '5', '5', '5', '5', '5', '5', '5', '5', '5', '5', '5', '5', '5', '5', '5', '5', '5', '5', '5', '5', '5', '5', '5', '5', '5', '5', '5', '5', '5', '5', '5', '5', '5', '5', '5', '5', '5', '5', '5', '5', '5', '5', '5', '5', '5', '5', '5', '5', '5', '5', '5', '5', '5', '5', '5', '5', '5', '5', '5', '5', '5', '5', '5', '5', '5', '5', '5', '5', '5', '5', '5', '5', '5', '5', '5', '5', '4', '3', -4, -5, -6, -7, -7, -7, -7, -7, -7, -7, -7, -7, -7, -7, -7, -7, -7, -7, -7, -7, -7, -7, -7, -7, -7, -7, -7, -7, -7, -7, -7, -8, -9, -10, -11, -12, -12, -12, -12, -12, -12, -12, -12, -12, -12, -12, -12, -12, -12, -12, -12, -12, -12, -12, -12, -12, -12, -12, -13, -14, -15, -16, -17, -18, -19, -20, -21, -21, -21, -21, -21, -21, -21, -21, -21, -21, -21, -21, -21, -21, -21, -21, -21, -21, -21, -21, -21, -21, -21, -21, -21, -21, -21, -21, -21, -21, -21, -21, -21, -21, -21, -21, -21, -21, -21, -21, -21, -21, -21, -21, -21, -21, -21, -21, -21, -21, -21, -21, -21, -21, -21, -21, -21, -21, -21, -21, -21, -21, -21, -21, -21, -21, -21, -21, -21, -21, -21, -21, -21, -21, -21, -21, -21, -21, -21, -21, -21, -21, -21, -21, -21, -21, -21, -21, -21, -21, -21, -21, -21, -21, -21, -21, -21, -21, -21, -21, -21, -21, -21, -21, -21, -21, -21, -21, -21, -21, -21, -21, -21, -21, -21, -21, -21, -21, -21, -21, -21, -21, -21, -21, -21, -21, -21, -21, -21, -21, -21, -21, -21, -21, -21, -21, -21, -21, -21, -21, -21, -21, -21, -21, -21, -21, -21, -21, -21, -21, -21, -21, -21, -21, -21, -21, -21, -21, -21, -21, -21, -21, -21, -21, -21, -21, -21, -21, -21, -21, -21, -21, -21, -21, -21, -21, -21, -21, -21, -21, -21, -21, -21, -21, -21, -21, -21, -21, -21, -21, -21, -21, -21, -21, -21, -21, -21, -21, -21, -21, -21, -21, -21, -21, -21, -21, -21, -21, -21, -21, -21, -21, -21, -21, -21, -21, -21, -21, -21, -21, -21, -21, -21, -21, -21, -21, -21, -21, -21, -21, -21, -21, -21, -21, -21, -21, -21, -21, -21, -21, -21, -21, -21, -21, -21, -21, -21, -21, -21, -21, -21, -21, -21, -21, -21, -21, -21, -21, -21, -21, -21, -21, -21, -21, -21, -21, -21, -21, -21, -21, -21, -21, -21, -21, -21, -21, -21, -21, -21, -21, -21, -21, -21, -21, -21, -21, -21, -21, -21, -21, -21, -21, -21, -21, -21, -21, -21, -21, -21, -21, -21, -21, -21, -21, -21, -21, -21, -21, -21, -21, -21, -21, -21, -21, -21, -21, -21, -21, -21, -21, -21, -21, -21, -21, -21, -21, -21, -21, -21, -21, -21, -21, -21, -21, -21, -21, -21, -21, -21, -21, -21, -21, -21, -21, -21, -21, -21, -21, -21, -21, -21, -21, -21, -21, -21, -21, -21, -21, -21, -21, -21, -21, -21, -21, -21, -21, -21, -21, -21, -21, -21, -21, -21, -21, -21, -21, -21, -21, -21, -21, -21, -21, -21, -21, -21, -21, -21, -21, -21, -21, -21, -21, -21, -21, -21, -21, -21, -21, -21, -21, -21, -21, -21, -21, -21, -21, -21, -21, -21, -21, -21, -21, -21, -21, -21, -21, -21, -21, -21, -21, -21, -21, -21, -21, -21, -21, -21, -21, -21, -21, -21, -21, -21, -21, -21, -21, -21, -21, -21, -21, -21, -21, -21, -21, -21, -21, -21, -21, -21, -21, -21, -21, -21, -21, -21, -21, -21, -21, -21, -21, -21, -21, -21, -21, -21, -21, -21, -21, -21, -21, -21, -21, -21, -21, -21, -21, -21, -21, -21, -21, -21, -21, -21, -21, -21, -21, -21, -21, -21, -21, -21, -21, -21, -21, -21, -21, -21, -21, -21, -21, -21, -21, -21, -21, -21, -21, -21, -21, -21, -21, -21, -21, -21, -21, -21, -21, -21, -21, -21, -21, -21, -21, -21, -21, -21, -21, -21, -21, -21, -21, -21, -21, -21, -21, -21, -21, -21, -21, -21, -21, -21, -21, -21, -21, -21, -21, -21, -21, -21, -21, -21, -21, -21, -21, -21, -21, -21, -21, -21, -21, -21, -21, -21, -21, -21, -21, -21, -21, -21, -21, -21, -21, -21, -22, -23, -24, -25, -26, -27, -28, -29, -30, -31, -32, -33, -34, -34, -34, -34, -34, -34, -34, -34, -34, -34, -34, -34, -34, -34, -34, -34, -34, -34, -34, -34, -34, -34, -34, -34, -34, -34, -34, -34, -34, -34, -34, -34, -34, -35, -36, -37, -38, -39, -40, -41, -42, -43, -44, -45, -46, -46, -46, -46, -46, -46, -46, -46, -46, -46, -46, -46, -46, -46, -46, -47, -48, -49, -50, -51, -52, -53, -53, -53, -53, -53, -53, -53, -53, -53, -53, -53, -53, -53, -53, -53, -53, -53, -53, -53, -53, -53, -53, -53, -53, -53, -53, -53, -53, -53, -53, -53, -53, -53, -53, -53, -53, -53, -53, -53, -53, -53, -53, -52, -51, -50, -49, -48, -47, -46, -45, -44, -43, -42, -41, -40, -39, -38, -37, -36, -35, -34, -33, -32, -31, -30, -29, -28, -27, -26, -25, -24, -23, -22, -21, -20, -19, -18, -17, -16, -15, -14, -13, -12, -11, -10, -9, -8, -7, -7, -7, -7, -7, -7, -7, -7, -7, -7, -7, -7, -7, -7, -7, -7, -7, -7, -7, -7, -7, -7, -7, -7, -7, -7, -7, -7, -7, -7, -7, -7, -7, -7, -7, -7, -7, -7, -7, -7, -7, -7, -7, -7, -7, -7, -6, -5, -4, '5', '5', '5', '5', '5', '5', '5', '5', '5', '5', '5', '5', '5', '5', '5', '5', '5', '5', '5', '5', '5', '5', '5', '5', '5', '5', '5', '5', '5', '5', '5', '5', '5', '5', '5', '5', '5', '5', '5', '5', '5', '5', '5', '5', '5', '5', '5', '5', '5', '5', '5', '5', '5', '5', '5', '5', '5', '5', '5', '5', '5', '5', '5', '5', '5', '5', '5', '5', '5', '5', '5', '5', '5', '6', '7', '8', '9', '9', '9', '9', '9', '9', '9', '9', '9', '9', '9', '9', '9', '9', '9', '9', '9', '9', '9', '9', '9', '9', '9', '9', '9', '9', '9', '9', '9', '9', '9', '9', '9', '9', '9', '9', '9', '9', '9', '9', '9', '9', '9', '9', '9', '9', '9', '9', '9', '9', '9', '9', '8', '7', '6', '5', -6, -7, -8, -9, -9, -9, -9, -9, -9, -9, -9, -9, -9, -9, -9, -9, -9, -9, -9, -9, -9, -9, -9, -9, -9, -9, -9, -9, -9, -9, -9, -9, -9, -9, -9, -9, -9, -9, -9, -9, -9, -9, -9, -9, -9, -9, -9, -9, -9, -9, -9, -9, -9, -9, -9, -10, -11, -12, -13, -14, -15, -16, -17, -18, -19, -20, -21, -22, -23, -23, -23, -23, -23, -23, -23, -23, -23, -23, -23, -23, -23, -23, -23, -23, -23, -23, -23, -23, -23, -23, -23, -23, -23, -23, -23, -23, -23, -23, -23, -23, -23, -23, -23, -23, -23, -23, -23, -23, -23, -23, -23, -23, -23, -23, -23, -23, -23, -23, -23, -23, -23, -23, -23, -23, -23, -23, -23, -23, -24, -25, -26, -27, -28, -29, -30, -31, -32, -33, -34, -35, -36, -36, -36, -36, -36, -36, -36, -36, -36, -36, -36, -36, -36, -36, -36, -36, -36, -36, -36, -36, -36, -36, -36, -36, -36, -36, -36, -36, -36, -36, -36, -36, -36, -36, -37, -38, -39, -40, -41, -42, -43, -44, -45, -46, -47, -48, -49, -50, -51, -51, -51, -51, -51, -51, -51, -51, -51, -51, -51, -51, -51, -51, -51, -51, -51, -51, -51, -51, -51, -51, -51, -51, -51, -51, -51, -51, -51, -52, -53, -54, -55, -56, -56, -56, -56, -56, -56, -56, -56, -56, -56, -56, -56, -56, -56, -56, -56, -56, -56, -56, -56, -56, -56, -56, -56, -56, -56, -56, -56, -56, -56, -56, -56, -56, -56, -56, -56, -56, -56, -56, -56, -56, -56, -56, -56, -56, -56, -56, -56, -56, -56, -56, -56, -56, -56, -56, -56, -56, -56, -57, -58, -59, -60, -61, -62, -63, -64, -65, -66, -67, -68, -69, -70, -71, -72, -73, -74, -75, -76, -77, -78, -79, -80, -81, -82, -83, -84, -85, -86, -87, -88, -89, -90, -91, -92, -93, -94, -95, -96, -97, -98, -99, -100, -100, -100, -100, -100, -100, -100, -100, -100, -100, -100, -100, -100, -100, -100, -100, -100, -100, -100, -100, -100, -100, -100, -100, -100, -100, -100, -100, -100, -100, -100, -100, -100, -100, -100, -100, -100, -100, -100, -100, -100, -100, -100, -100, -100, -100, -100, -100, -100, -100, -100, -100, -99, -98, -97, -96, -95, -94, -93, -92, -91, -90, -89, -88, -87, -86, -85, -84, -83, -82, -81, -80, -79, -78, -77, -76, -75, -74, -73, -72, -71, -70, -69, -68, -67, -66, -65, -64, -63, -62, -61, -60, -59, -58, -57, -56, -55, -55, -55, -55, -55, -55, -55, -55, -55, -55, -55, -55, -55, -55, -55, -55, -55, -55, -55, -55, -55, -54, -53, -52, -51, -50, -49, -48, -47, -46, -45, -44, -43, -42, -41, -40, -39, -38, -37, -36, -35, -34, -33, -32, -31, -30, -29, -29, -29, -29, -29, -29, -29, -29, -29, -29, -29, -29, -29, -29, -29, -29, -29, -29, -29, -29, -29, -29, -29, -29, -29, -29, -29, -29, -29, -29, -29, -29, -29, -28, -27, -26, -25, -24, -23, -22, -21, -20, -19, -18, -18, -18, -18, -18, -18, -18, -18, -18, -18, -18, -18, -18, -18, -18, -18, -18, -18, -18, -18, -18, -18, -18, -18, -18, -18, -18, -18, -18, -18, -18, -17, -16, -15, -14, -13, -12, -11, -10, -9, -9, -9, -9, -9, -9, -9, -9, -9, -9, -9, -9, -9, -9, -9, -9, -8, -7, -6, -5, -4, -4, -4, -4, -4, -4, -4, -4, -4, -4, -4, -4, -4, -4, -4, -4, -4, -4, -4, -4, -4, -4, -4, -4, -4, -4, -4, -4, -4, -4, -4, -4, -4, -4, -4, -4, -4, -4, -4, -4, -4, -4, -4, -4, -4, -4, -4, -4, -4, -4, -4, -4, -4, -4, -4, -4, -4, -4, -4, -4, -4, -4, -4, -4, -4, -4, -4, -4, -4, -4, -4, -4, -4, -4, -4, -4, -4, -4, -4, -4, -4, -4, -4, -4, -4, -4, -4, -4, -4, -4, -4, -4, -4, -4, -4, -4, -4, -4, -4, -4, -4, -4, -4, -4, -4, -4, -4, -4, -4, -4, -4, -4, -4, -4, -4, -4, -4, -4, -4, -4, -4, -4, -4, -4, -4, -4, -4, -4, -4, -4, -4, -4, -4, -4, -4, -4, -4, -4, -4, -4, -4, -4, -4, -4, -4, -4, -4, -4, -4, -4, -4, -4, -4, -4, -4, -4, -4, -4, -4, -4, -4, -4, -4, -4, -4, -4, -4, -4, -4, -4, -4, -4, -4, -4, -4, -4, -4, -4, -4, -4, -4, -4, -4, -4, -4, -4, -4, -4, -4, -4, -4, -4, -4, -4, -4, -4, -4, -4, -4, -4, -4, -4, -4, -4, -4, -4, -4, -4, -4, -4, -4, -4, -4, -4, -4, -4, -4, -4, -4, -4, -4, -4, -4, -4, -4, -4, -4, -4, -4, -4, -4, -4, -4, -4, -4, -4, -4, -4, -4, -4, -4, -4, -4, -4, -4, -4, -4, -4, -4, -4, -4, -4, -4, -4, -4, -4, -4, -4, -4, -4, -4, -4, -4, -4, -4, -4, -4, -4, -4, -4, -4, -4, -4, -4, -4, -4, -4, -4, -4, -4, -4, -4, -4, -4, -4, -4, -4, -4, -4, -4, -4, -4, -4, -4, -4, -4, -4, -4, -3, -2, '3', '4', '5', '6', '7', '7', '7', '7', '7', '7', '7', '7', '7', '7', '7', '7', '7', '7', '7', '7', '7', '7', '7', '7', '7', '7', '7', '7', '7', '7', '7', '7', '7', '7', '7', '7', '7', '7', '7', '7', '7', '7', '7', '7', '7', '6', '5', '4', '3', -4, -5, -6, -6, -6, -6, -6, -6, -6, -6, -6, -6, -6, -6, -6, -6, -6, -6, -6, -6, -6, -6, -6, -6, -6, -6, -6, -6, -6, -6, -6, -6, -6, -6, -6, -6, -6, -6, -6, -6, -6, -6, -6, -6, -6, -6, -6, -6, -6, -6, -6, -6, -6, -6, -6, -6, -6, -6, -6, -6, -6, -6, -6, -6, -6, -6, -6, -6, -6, -6, -6, -6, -6, -6, -6, -6, -6, -6, -6, -6, -6, -6, -6, -6, -6, -6, -6, -6, -6, -6, -6, -6, -6, -6, -6, -6, -6, -6, -6, -6, -6, -6, -6, -6, -6, -6, -6, -6, -6, -6, -6, -6, -6, -6, -6, -6, -6, -6, -6, -6, -6, -6, -6, -6, -6, -6, -6, -6, -6, -6, -6, -6, -6, -6, -6, -6, -6, -6, -6, -6, -6, -6, -6, -6, -6, -6, -6, -6, -6, -6, -6, -6, -6, -6, -6, -6, -6, -6, -6, -6, -6, -6, -6, -6, -6, -6, -6, -6, -6, -6, -6, -6, -6, -6, -6, -6, -6, -6, -6, -6, -6, -6, -6, -6, -6, -6, -6, -6, -6, -6, -6, -6, -6, -6, -6, -6, -6, -6, -6, -6, -6, -6, -6, -6, -6, -6, -6, -6, -6, -6, -6, -6, -6, -6, -6, -6, -6, -6, -6, -6, -6, -6, -6, -6, -6, -6, -6, -6, -6, -6, -6, -6, -6, -6, -6, -6, -6, -6, -6, -6, -6, -6, -6, -6, -6, -6, -6, -6, -6, -6, -6, -6, -6, -6, -6, -6, -6, -6, -6, -6, -6, -6, -6, -6, -6, -6, -6, -6, -6, -6, -6, -6, -6, -6, -6, -6, -6, -6, -6, -6, -6, -6, -6, -6, -6, -6, -6, -6, -6, -6, -6, -6, -6, -6, -6, -6, -6, -6, -6, -6, -6, -6, -6, -6, -6, -6, -6, -6, -6, -6, -6, -6, -6, -6, -6, -6, -6, -6, -6, -6, -6, -6, -6, -6, -6, -6, -6, -6, -6, -6, -6, -6, -6, -6, -6, -6, -6, -6, -6, -6, -6, -6, -6, -6, -6, -6, -6, -6, -6, -6, -6, -6, -6, -6, -6, -6, -6, -6, -6, -6, -6, -6, -6, -6, -6, -6, -6, -6, -6, -6, -6, -6, -6, -6, -6, -6, -6, -6, -6, -6, -6, -6, -6, -6, -6, -6, -6, -6, -6, -6, -6, -6, -6, -6, -6, -6, -6, -6, -6, -6, -6, -6, -6, -6, -6, -6, -6, -6, -6, -6, -6, -6, -6, -6, -6, -6, -6, -6, -6, -6, -6, -6, -6, -6, -6, -6, -6, -6, -6, -6, -6, -6, -6, -6, -6, -6, -6, -6, -6, -6, -6, -6, -6, -6, -6, -6, -6, -6, -6, -6, -6, -6, -6, -6, -6, -6, -6, -6, -6, -6, -6, -6, -6, -6, -6, -6, -6, -6, -6, -6, -6, -6, -6, -6, -6, -6, -6, -6, -6, -6, -6, -6, -6, -6, -6, -6, -6, -6, -6, -6, -6, -6, -6, -6, -6, -6, -6, -6, -6, -6, -6, -6, -6, -6, -6, -6, -6, -6, -6, -6, -6, -6, -6, -6, -6, -6, -6, -6, -6, -6, -6, -6, -6, -6, -7, -8, -9, -10, -11, -12, -13, -14, -15, -16, -17, -18, -19, -20, -21, -22, -23, -24, -25, -26, -27, -28, -29, -30, -31, -32, -33, -34, -35, -36, -37, -38, -39, -40, -41, -42, -43, -44, -45, -46, -47, -47, -47, -47, -47, -47, -47, -47, -47, -48, -49, -50, -51, -52, -53, -54, -55, -56, -57, -57, -57, -57, -57, -57, -57, -57, -57, -57, -57, -57, -57, -57, -57, -57, -57, -57, -57, -57, -57, -57, -57, -57, -57, -57, -57, -57, -57, -57, -57, -57, -57, -57, -57, -57, -57, -57, -57, -57, -57, -57, -57, -58, -59, -60, -61, -62, -63, -64, -65, -66, -67, -68, -69, -70, -71, -72, -73, -74, -75, -76, -77, -78, -79, -80, -81, -82, -83, -84, -85, -86, -87, -88, -89, -90, -91, -92, -93, -94, -95, -96, -97, -98, -99, -100, -100, -100, -100, -100, -100, -100, -100, -100, -100, -100, -100, -100, -100, -100, -100, -100, -100, -100, -100, -100, -100, -100, -100, -100, -100, -100, -100, -100, -100, -100, -100, -100, -100, -100, -100, -100, -100, -100, -100, -100, -100, -100, -100, -100, -100, -100, -100, -100, -100, -100, -100, -100, -100, -100, -100, -100, -100, -100, -100, -100, -100, -100, -100, -100, -100, -100, -100, -100, -100, -100, -100, -100, -100, -100, -100, -100, -100, -100, -100, -100, -100, -100, -100, -100, -100, -100, -100, -100, -100, -100, -100, -100, -100, -100, -100, -100, -100, -100, -100, -100, -100, -100, -100, -100, -100, -100, -100, -100, -100, -100, -100, -100, -100, -100, -100, -100, -100, -100, -100, -100, -100, -100, -100, -100, -100, -100, -100, -100, -100, -100, -100, -100, -100, -100, -100, -100, -100, -100, -100, -99, -98, -97, -96, -95, -94, -93, -92, -91, -90, -89, -88, -87, -86, -85, -84, -83, -82, -81, -80, -79, -78, -77, -76, -75, -74, -73, -72, -71, -70, -69, -68, -67, -66, -65, -64, -63, -62, -61, -60, -59, -58, -57, -57, -57, -57, -57, -57, -57, -57, -57, -57, -57, -57, -57, -57, -57, -57, -57, -57, -57, -57, -57, -57, -56, -55, -54, -53, -52, -51, -50, -49, -48, -47, -46, -46, -46, -46, -46, -46, -46, -46, -46, -46, -46, -46, -46, -46, -46, -46, -46, -46, -46, -46, -46, -46, -46, -46, -46, -46, -46, -46, -46, -46, -46, -46, -45, -44, -43, -42, -41, -40, -39, -38, -37, -36, -35, -34, -33, -32, -31, -30, -29, -28, -27, -26, -25, -24, -23, -22, -21, -20, -19, -18, -17, -16, -15, -14, -13, -12, -11, -10, -10, -10, -10, -10, -10, -10, -10, -10, -10, -10, -10, -10, -10, -10, -10, -10, -10, -10, -10, -10, -10, -10, -10, -10, -10, -10, -10, -10, -9, -8, -7, -6, -5, -4, -3, -2, '3', '3', '3', '3', '3', '3', '3', '3', '3', '3', '3', '3', '3', '3', '3', '3', '3', '3', '3', '3', '3', '3', '3', '3', '3', '3', '3', '3', '3', '3', '3', '3', '3', '3', '3', '3', '3', '3', '3', '3', '3', '3', '3', '3', '3', '3', '3', '3', '3', '3', '3', '3', '3', '3', '3', '3', '3', '3', '3', '3', '3', '3', '3', '3', '3', '3', '3', '3', '3', '3', '3', '3', '3', '3', '3', '3', '3', '3', '3', '3', '3', '3', '3', '3', '3', '3', '3', '3', '3', '3', '3', '3', '3', '3', '3', '3', '3', '3', '3', '3', '3', '3', '3', '3', '3', '3', '3', '3', '3', '3', '3', '3', '3', '3', '3', '3', '3', '3', '3', '3', '3', '3', '3', '3', '3', '3', '3', '3', '3', '3', '3', '3', '3', '3', '3', '3', '3', '3', '3', '3', '3', '3', '3', '3', '3', '3', '3', '3', '3', '3', '3', '3', '3', '3', '3', '3', '3', '3', '3', '3', '3', '3', '3', '3', '3', '3', '3', '3', '3', '3', '3', '3', '3', '3', '3', '3', '3', '3', '3', '3', '3', '3', '3', '3', '3', '3', '3', '3', '3', '3', '3', '3', '4', '5', '6', '6', '6', '6', '6', '6', '6', '6', '6', '6', '6', '6', '6', '6', '6', '6', '6', '6', '6', '6', '6', '6', '6', '6', '6', '6', '6', '6', '6', '6', '6', '6', '6', '6', '6', '6', '6', '6', '6', '6', '6', '6', '6', '6', '6', '5', '4', '4', '4', '4', '4', '4', '4', '4', '4', '4', '4', '4', '4', '4', '4', '4', '4', '4', '4', '4', '4', '4', '4', '4', '4', '4', '4', '4', '4', '4', '4', '4', '4', '4', '4', '4', '4', '4', '4', '4', '4', '4', '4', '4', '4', '4', '4', '4', '4', '4', '4', '4', '4', '4', '4', '4', '4', '4', '4', '4', '4', '4', '4', '4', '4', '4', '4', '4', '4', '4', '4', '4', '4', '4', '4', '4', '4', '4', '4', '4', '4', '4', '4', '4', '4', '4', '3', '3', '3', '3', '3', '3', '3', '3', '3', '3', '3', '3', '3', '3', '3', '3', '3', '3', '3', '3', '3', '3', '3', '3', '3', '3', '3', '3', '3', '3', '3', '3', '3', '3', '3', '3', '3', '3', '3', '3', '3', '3', '3', '3', -4, -5, -6, -6, -6, -6, -6, -6, -6, -6, -6, -6, -6, -6, -6, -6, -6, -6, -6, -6, -6, -6, -6, -6, -6, -6, -6, -6, -6, -6, -6, -6, -6, -6, -6, -6, -6, -6, -6, -6, -6, -6, -6, -6, -6, -6, -6, -6, -6, -6, -6, -6, -6, -6, -6, -6, -6, -6, -6, -6, -6, -6, -6, -6, -6, -6, -6, -6, -6, -6, -6, -6, -6, -6, -6, -6, -6, -6, -6, -6, -6, -6, -6, -6, -6, -6, -6, -6, -6, -6, -6, -6, -6, -6, -6, -6, -6, -6, -6, -6, -6, -6, -6, -6, -6, -6, -6, -6, -6, -6, -6, -6, -6, -6, -6, -6, -6, -6, -6, -6, -6, -6, -6, -6, -6, -6, -6, -6, -6, -6, -6, -6, -6, -6, -6, -6, -6, -6, -6, -6, -6, -6, -6, -6, -6, -6, -6, -5, -4, '5', '6', '7', '8', '9', '10', '11', '12', '13', '14', '15', '16', '16', '16', '16', '16', '16', '16', '16', '16', '16', '16', '16', '16', '16', '16', '16', '16', '16', '16', '16', '16', '16', '16', '16', '16', '16', '16', '16', '16', '16', '16', '16', '16', '16', '16', '16', '16', '16', '16', '16', '16', '16', '16', '16', '16', '17', '18', '19', '20', '21', '22', '23', '24', '25', '26', '27', '28', '29', '30', '31', '32', '33', '34', '35', '36', '37', '38', '39', '40', '41', '42', '43', '44', '45', '46', '47', '48', '49', '50', '51', '52', '53', '54', '55', '56', '57', '58', '59', '60', '60', '60', '60', '60', '60', '60', '60', '60', '60', '60', '60', '60', '60', '60', '60', '60', '60', '60', '60', '60', '60', '60', '60', '60', '60', '60', '60', '60', '60', '59', '58', '57', '56', '55', '54', '53', '52', '51', '50', '49', '48', '47', '46', '45', '44', '43', '42', '41', '40', '39', '38', '37', '36', '35', '34', '33', '32', '31', '30', '29', '28', '27', '26', '25', '24', '23', '22', '21', '20', '19', '18', '17', '16', '16', '16', '16', '16', '16', '16', '16', '16', '16', '16', '16', '16', '16', '16', '16', '16', '16', '16', '16', '16', '16', '16', '16', '16', '15', '14', '13', '12', '11', '10', '9', '9', '9', '9', '9', '9', '9', '9', '9', '9', '9', '9', '9', '9', '9', '9', '9', '9', '9', '9', '9', '9', '9', '9', '9', '9', '9', '9', '9', '9', '9', '9', '9', '9', '9', '9', '9', '9', '9', '9', '9', '9', '9', '9', '9', '9', '8', '7', '6', '5', -6, -7, -8, -8, -8, -8, -8, -8, -8, -8, -8, -8, -8, -8, -8, -8, -8, -8, -8, -8, -8, -8, -8, -8, -8, -8, -8, -8, -8, -8, -8, -8, -8, -8, -8, -8, -8, -8, -8, -8, -8, -8, -8, -8, -8, -8, -8, -8, -8, -8, -8, -8, -8, -8, -8, -8, -8, -8, -8, -8, -8, -8, -8, -8, -8, -8, -8, -8, -8, -8, -8, -8, -8, -8, -8, -8, -8, -8, -8, -8, -8, -8, -8, -8, -8, -8, -8, -8, -8, -8, -8, -8, -9, -10, -11, -12, -13, -14, -15, -16, -17, -18, -18, -18, -18, -18, -18, -18, -18, -18, -18, -18, -18, -19, -20, -21, -22, -23, -24, -25, -26, -27, -28, -29, -30, -31, -32, -33, -34, -35, -36, -37, -38, -39, -40, -41, -41, -41, -41, -41, -41, -41, -41, -41, -41, -41, -41, -41, -41, -41, -41, -41, -41, -41, -41, -41, -41, -41, -41, -41, -41, -41, -41, -41, -41, -41, -41, -41, -41, -41, -41, -41, -41, -41, -41, -41, -41, -41, -41, -41, -41, -41, -41, -41, -41, -41, -41, -41, -41, -41, -41, -41, -41, -41, -41, -41, -41, -41, -41, -41, -41, -41, -41, -41, -41, -41, -41, -41, -41, -41, -41, -41, -41, -41, -41, -41, -41, -41, -41, -41, -41, -41, -41, -41, -41, -41, -41, -41, -41, -41, -41, -41, -41, -41, -41, -41, -41, -41, -41, -41, -41, -41, -41, -41, -41, -41, -41, -41, -41, -41, -41, -41, -41, -41, -41, -41, -41, -41, -41, -41, -41, -41, -41, -41, -41, -41, -41, -41, -41, -41, -41, -41, -41, -41, -41, -41, -41, -41, -41, -41, -41, -41, -41, -41, -41, -41, -41, -41, -41, -41, -41, -41, -41, -41, -41, -41, -41, -41, -41, -41, -41, -41, -41, -41, -41, -41, -41, -41, -41, -41, -41, -41, -41, -41, -41, -41, -41, -41, -41, -41, -41, -41, -41, -41, -41, -41, -41, -41, -41, -41, -41, -41, -41, -41, -41, -41, -41, -41, -41, -41, -41, -41, -41, -41, -41, -41, -41, -41, -41, -41, -41, -41, -41, -41, -41, -41, -41, -41, -41, -41, -41, -41, -41, -41, -41, -41, -41, -41, -41, -41, -41, -41, -41, -41, -41, -41, -41, -41, -41, -41, -41, -41, -41, -41, -41, -41, -41, -41, -41, -41, -41, -41, -41, -41, -41, -41, -41, -41, -41, -41, -41, -41, -41, -41, -41, -41, -41, -41, -41, -41, -41, -41, -41, -41, -41, -41, -41, -41, -41, -41, -41, -41, -41, -41, -41, -41, -41, -41, -41, -41, -41, -41, -41, -41, -41, -41, -41, -41, -41, -41, -41, -41, -41, -41, -41, -41, -41, -41, -41, -41, -41, -41, -41, -41, -41, -41, -41, -41, -41, -41, -41, -41, -41, -41, -41, -41, -41, -41, -41, -41, -41, -41, -41, -41, -41, -41, -41, -41, -41, -41, -41, -41, -41, -41, -41, -41, -41, -41, -41, -41, -41, -41, -41, -41, -41, -41, -41, -41, -41, -41, -41, -41, -41, -41, -41, -41, -41, -41, -41, -41, -41, -41, -41, -41, -41, -41, -41, -41, -41, -41, -41, -41, -41, -41, -41, -41, -41, -41, -41, -41, -41, -41, -41, -41, -41, -41, -41, -41, -41, -41, -41, -41, -41, -41, -41, -41, -41, -41, -41, -41, -41, -41, -41, -41, -41, -41, -41, -41, -41, -41, -41, -41, -41, -41, -41, -41, -41, -41, -41, -41, -41, -41, -41, -41, -41, -41, -41, -41, -41, -41, -41, -41, -41, -41, -41, -41, -41, -41, -41, -41, -41, -41, -41, -41, -41, -41, -41, -41, -41, -41, -41, -41, -41, -41, -41, -41, -41, -41, -41, -41, -41, -41, -41, -41, -41, -41, -41, -41, -41, -41, -41, -41, -41, -41, -41, -41, -41, -41, -41, -41, -41, -41, -41, -41, -41, -41, -41, -41, -41, -41, -41, -41, -41, -41, -41, -41, -41, -41, -41, -41, -41, -41, -41, -41, -41, -41, -41, -41, -41, -41, -41, -41, -41, -41, -41, -41, -41, -41, -41, -41, -41, -41, -41, -41, -41, -41, -41, -41, -41, -41, -41, -41, -41, -41, -41, -41, -41, -41, -41, -41, -41, -41, -41, -41, -41, -41, -41, -41, -41, -41, -41, -41, -41, -41, -41, -41, -41, -41, -41, -41, -41, -41, -41, -41, -41, -41, -41, -41, -41, -41, -41, -41, -41, -41, -41, -41, -41, -41, -41, -41, -41, -41, -41, -41, -41, -41, -41, -41, -41, -41, -41, -41, -41, -41, -41, -41, -41, -41, -41, -41, -41, -41, -41, -41, -41, -41, -41, -41, -41, -41, -41, -41, -41, -41, -41, -41, -41, -41, -41, -41, -41, -41, -41, -41, -41, -41, -41, -41, -41, -41, -41, -41, -41, -41, -41, -41, -41, -41, -41, -41, -41, -41, -41, -41, -41, -41, -41, -41, -41, -41, -41, -41, -41, -41, -41, -41, -41, -41, -41, -41, -41, -41, -41, -41, -41, -41, -41, -41, -41, -41, -41, -41, -41, -41, -41, -41, -41, -41, -41, -41, -41, -41, -41, -41, -41, -41, -41, -41, -41, -41, -41, -41, -41, -41, -41, -41, -41, -41, -41, -41, -41, -41, -41, -41, -41, -41, -41, -41, -41, -41, -41, -41, -41, -41, -41, -41, -41, -41, -41, -41, -41, -41, -41, -41, -41, -41, -41, -41, -41, -41, -41, -41, -41, -41, -41, -41, -41, -41, -41, -41, -41, -41, -41, -41, -41, -41, -41, -41, -41, -41, -41, -41, -41, -41, -41, -41, -41, -41, -41, -41, -41, -41, -41, -41, -41, -41, -41, -41, -41, -41, -41, -41, -41, -41, -41, -41, -41, -41, -41, -41, -41, -41, -41, -41, -41, -41, -41, -41, -41, -41, -41, -41, -41, -41, -41, -41, -41, -41, -41, -41, -41, -41, -41, -41, -41, -41, -41, -41, -41, -41, -41, -41, -41, -41, -41, -41, -41, -41, -41, -41, -41, -41, -41, -41, -41, -41, -41, -41, -41, -41, -41, -41, -41, -41, -41, -41, -41, -41, -41, -41, -41, -41, -41, -41, -41, -41, -41, -41, -41, -41, -41, -41, -41, -41, -41, -41, -41, -41, -41, -41, -41, -41, -41, -41, -41, -41, -41, -41, -41, -41, -41, -41, -41, -41, -41, -41, -41, -41, -41, -41, -41, -41, -41, -41, -41, -41, -41, -41, -41, -41, -41, -41, -41, -41, -41, -41, -41, -41, -41, -41, -41, -41, -41, -41, -41, -41, -41, -41, -41, -41, -41, -41, -41, -41, -41, -41, -41, -41, -41, -41, -41, -41, -41, -41, -41, -41, -41, -41, -41, -41, -41, -41, -41, -41, -41, -41, -41, -41, -41, -41, -41, -41, -41, -41, -41, -41, -41, -41, -41, -41, -41, -41, -41, -41, -41, -41, -41, -41, -41, -41, -41, -41, -41, -41, -41, -41, -41, -41, -41, -41, -41, -41, -41, -41, -41, -41, -41, -41, -41, -41, -41, -41, -41, -41, -41, -41, -41, -41, -41, -41, -41, -41, -41, -41, -41, -41, -41, -41, -41, -41, -41, -41, -41, -41, -41, -41, -41, -41, -41, -41, -41, -41, -41, -41, -41, -41, -41, -41, -41, -41, -41, -41, -41, -41, -41, -41, -41, -41, -41, -41, -41, -41, -41, -41, -41, -41, -41, -41, -41, -41, -41, -41, -41, -41, -41, -41, -41, -41, -41, -41, -41, -41, -41, -41, -41, -41, -41, -41, -41, -41, -41, -41, -41, -41, -41, -41, -41, -41, -41, -41, -41, -41, -41, -41, -41, -41, -41, -41, -41, -41, -41, -41, -41, -41, -41, -41, -41, -41, -41, -41, -41, -41, -41, -41, -41, -41, -41, -41, -41, -41, -41, -41, -41, -41, -41, -41, -41, -41, -41, -41, -41, -41, -41, -41, -41, -41, -41, -41, -41, -41, -41, -41, -41, -41, -41, -41, -41, -41, -41, -41, -41, -41, -41, -41, -41, -41, -41, -41, -41, -41, -41, -41, -41, -41, -41, -41, -41, -41, -41, -41, -41, -41, -41, -41, -41, -41, -41, -41, -41, -41, -41, -41, -41, -41, -41, -41, -41, -41, -41, -41, -41, -41, -41, -41, -41, -41, -41, -41, -41, -41, -41, -41, -41, -41, -41, -41, -41, -41, -41, -41, -41, -41, -41, -41, -41, -41, -41, -41, -41, -41, -41, -41, -41, -41, -41, -41, -41, -41, -41, -41, -41, -41, -41, -41, -41, -41, -41, -41, -41, -41, -41, -41, -41, -41, -41, -41, -41, -41, -41, -41, -41, -41, -41, -41, -41, -41, -41, -41, -41, -41, -41, -41, -41, -41, -41, -41, -41, -41, -41, -41, -41, -41, -41, -41, -41, -41, -41, -41, -41, -41, -41, -41, -41, -41, -41, -41, -41, -41, -41, -41, -41, -41, -41, -41, -41, -41, -41, -41, -41, -41, -41, -41, -41, -41, -41, -41, -41, -41, -41, -41, -41, -41, -41, -41, -41, -41, -41, -41, -41, -41, -41, -41, -41, -41, -41, -41, -41, -41, -41, -41, -41, -41, -41, -41, -41, -41, -41, -41, -41, -41, -41, -41, -41, -41, -41, -41, -41, -41, -41, -41, -41, -41, -41, -41, -41, -41, -41, -41, -41, -41, -41, -41, -41, -41, -41, -41, -41, -41, -41, -41, -41, -41, -41, -41, -41, -41, -41, -41, -41, -41, -41, -41, -41, -41, -41, -41, -41, -41, -41, -41, -41, -41, -41, -41, -41, -41, -41, -41, -41, -41, -41, -41, -41, -41, -41, -41, -41, -41, -41, -41, -41, -41, -41, -41, -41, -41, -41, -41, -41, -41, -41, -41, -41, -41, -41, -41, -41, -41, -41, -41, -41, -41, -41, -41, -41, -41, -41, -41, -41, -41, -41, -41, -41, -41, -41, -41, -41, -41, -41, -41, -41, -41, -41, -41, -41, -41, -41, -41, -41, -41, -41, -41, -41, -41, -41, -41, -41, -41, -41, -41, -41, -41, -41, -41, -41, -41, -41, -41, -41, -41, -41, -41, -41, -41, -41, -41, -41, -41, -41, -41, -41, -41, -41, -41, -41, -41, -41, -41, -41, -41, -41, -41, -41, -41, -41, -41, -41, -41, -41, -41, -41, -41, -41, -41, -41, -41, -41, -41, -41, -41, -41, -41, -41, -41, -41, -41, -41, -41, -41, -41, -41, -41, -41, -41, -41, -41, -41, -41, -41, -41, -41, -41, -41, -41, -41, -41, -41, -41, -41, -41, -41, -41, -41, -41, -41, -41, -41, -41, -41, -41, -41, -41, -41, -41, -41, -41, -41, -41, -41, -41, -41, -41, -41, -41, -41, -41, -41, -41, -41, -41, -41, -41, -41, -41, -41, -41, -41, -41, -41, -41, -41, -41, -41, -41, -41, -41, -41, -41, -41, -41, -41, -41, -41, -41, -41, -41, -41, -41, -41, -41, -41, -41, -41, -41, -41, -41, -41, -41, -41, -41, -41, -41, -41, -41, -41, -41, -41, -41, -41, -41, -41, -41, -41, -41, -41, -41, -41, -41, -41, -41, -41, -41, -41, -41, -41, -41, -41, -41, -41, -41, -41, -41, -41, -41, -41, -41, -41, -41, -41, -41, -41, -41, -41, -41, -41, -41, -41, -41, -41, -41, -41, -41, -41, -41, -41, -41, -41, -41, -41, -41, -41, -41, -41, -41, -41, -41, -41, -41, -41, -41, -41, -41, -41, -41, -41, -41, -41, -41, -41, -41, -41, -41, -41, -41, -41, -41, -41, -41, -41, -41, -41, -41, -41, -41, -41, -41, -41, -41, -41, -41, -41, -41, -41, -41, -41, -41, -41, -41, -41, -41, -41, -41, -41, -41, -41, -41, -41, -41, -41, -41, -41, -41, -41, -41, -41, -41, -41, -41, -41, -41, -41, -41, -41, -41, -41, -41, -41, -41, -41, -41, -41, -41, -41, -41, -41, -41, -41, -41, -41, -41, -41, -41, -41, -41, -41, -41, -41, -41, -41, -41, -41, -41, -41, -41, -41, -41, -41, -41, -41, -41, -41, -41, -41, -41, -41, -41, -41, -41, -41, -41, -41, -41, -41, -41, -41, -41, -41, -41, -41, -41, -41, -41, -41, -41, -41, -41, -41, -41, -41, -41, -41, -41, -41, -41, -41, -41, -41, -41, -41, -41, -41, -41, -41, -41, -41, -41, -41, -41, -41, -41, -41, -41, -41, -41, -41, -41, -41, -41, -41, -41, -41, -41, -41, -41, -41, -41, -41, -41, -41, -41, -41, -41, -41, -41, -41, -41, -41, -41, -41, -41, -41, -41, -41, -41, -41, -41, -41, -41, -41, -41, -41, -41, -41, -41, -41, -41, -41, -41, -41, -41, -41, -41, -41, -41, -41, -41, -41, -41, -41, -41, -41, -41, -41, -41, -41, -41, -41, -41, -41, -41, -41, -41, -41, -41, -41, -41, -41, -41, -41, -41, -41, -41, -41, -41, -41, -41, -41, -41, -41, -41, -41, -41, -41, -41, -41, -41, -41, -41, -41, -41, -41, -41, -41, -41, -41, -41, -41, -41, -41, -41, -41, -41, -41, -41, -41, -41, -41, -41, -41, -41, -41, -41, -41, -41, -41, -41, -41, -41, -41, -41, -41, -41, -41, -41, -41, -41, -41, -41, -41, -41, -41, -41, -41, -41, -41, -41, -41, -41, -41, -41, -41, -41, -41, -41, -41, -41, -41, -41, -41, -41, -41, -41, -41, -41, -41, -41, -41, -41, -41, -41, -41, -41, -41, -41, -41, -41, -41, -41, -41, -41, -41, -41, -41, -41, -41, -41, -41, -41, -41, -41, -41, -41, -41, -41, -41, -41, -41, -41, -41, -41, -41, -41, -41, -41, -41, -41, -41, -41, -41, -41, -41, -41, -41, -41, -41, -41, -41, -41, -41, -41, -41, -41, -41, -41, -41, -41, -41, -41, -41, -41, -41, -41, -41, -41, -41, -41, -41, -41, -41, -41, -41, -41, -41, -41, -41, -41, -41, -41, -41, -41, -41, -41, -41, -41, -41, -41, -41, -41, -41, -41, -41, -41, -41, -41, -41, -41, -41, -41, -41, -41, -41, -41, -41, -41, -41, -41, -41, -41, -41, -41, -41, -41, -41, -41, -41, -41, -41, -41, -41, -41, -41, -41, -41, -41, -41, -41, -41, -41, -41, -41, -41, -41, -41, -41, -41, -41, -41, -41, -41, -41, -41, -41, -41, -41, -41, -41, -41, -41, -41, -41, -41, -41, -41, -41, -41, -41, -41, -41, -41, -41, -41, -41, -41, -41, -41, -41, -41, -41, -41, -41, -41, -41, -41, -41, -41, -41, -41, -41, -41, -41, -41, -41, -41, -41, -41, -41, -41, -41, -41, -41, -41, -41, -41, -41, -41, -41, -41, -41, -41, -41, -41, -41, -41, -41, -41, -41, -41, -41, -41, -41, -41, -41, -41, -41, -41, -41, -41, -41, -41, -41, -41, -41, -41, -41, -41, -41, -41, -41, -41, -41, -41, -41, -41, -41, -41, -41, -41, -41, -41, -41, -41, -41, -41, -41, -41, -41, -41, -41, -41, -41, -41, -41, -41, -41, -41, -41, -41, -41, -41, -41, -41, -41, -41, -41, -41, -41, -41, -41, -41, -41, -41, -41, -41, -41, -41, -41, -41, -41, -41, -41, -41, -41, -41, -41, -41, -41, -41, -41, -41, -41, -41, -41, -41, -41, -41, -41, -41, -41, -41, -41, -41, -41, -41, -41, -41, -41, -41, -41, -41, -41, -41, -41, -41, -41, -41, -41, -41, -41, -41, -41, -41, -41, -41, -41, -41, -41, -41, -41, -41, -41, -41, -41, -41, -41, -41, -41, -41, -41, -41, -41, -41, -41, -41, -41, -41, -41, -41, -41, -41, -41, -41, -41, -41, -41, -41, -41, -41, -41, -41, -41, -41, -41, -41, -41, -41, -41, -41, -41, -41, -41, -41, -41, -41, -41, -41, -41, -41, -41, -41, -41, -41, -41, -41, -41, -41, -41, -41, -41, -41, -41, -41, -41, -41, -41, -41, -41, -41, -41, -41, -41, -41, -41, -41, -41, -41, -41, -41, -41, -41, -41, -41, -41, -41, -41, -41, -41, -41, -41, -41, -41, -41, -41, -41, -41, -41, -41, -41, -41, -41, -41, -41, -41, -41, -41, -41, -41, -41, -41, -41, -41, -41, -41, -41, -41, -41, -41, -41, -41, -41, -41, -41, -41, -41, -41, -41, -41, -41, -41, -41, -41, -41, -41, -41, -41, -41, -41, -41, -41, -41, -41, -41, -41, -41, -41, -41, -41, -41, -41, -41, -41, -41, -41, -41, -41, -41, -41, -41, -41, -41, -41, -41, -41, -41, -41, -41, -41, -41, -41, -41, -41, -41, -41, -41, -41, -41, -41, -41, -41, -41, -41, -41, -41, -41, -41, -41, -41, -41, -41, -41, -41, -41, -41, -41, -41, -41, -41, -41, -41, -41, -41, -41, -41, -41, -41, -41, -41, -41, -41, -41, -41, -41, -41, -41, -41, -41, -41, -41, -41, -41, -41, -41, -41, -41, -41, -41, -41, -41, -41, -41, -41, -41, -41, -41, -41, -41, -41, -41, -41, -41, -41, -41, -41, -41, -41, -41, -41, -41, -41, -41, -41, -41, -41, -41, -41, -41, -41, -41, -41, -41, -41, -41, -41, -41, -41, -41, -41, -41, -41, -41, -41, -41, -41, -41, -41, -41, -41, -41, -41, -41, -41, -41, -41, -41, -41, -41, -41, -41, -41, -41, -41, -41, -41, -41, -41, -41, -41, -41, -41, -41, -41, -41, -41, -41, -41, -41, -41, -41, -41, -41, -41, -41, -41, -41, -41, -41, -41, -41, -41, -41, -41, -41, -41, -41, -41, -41, -41, -41, -41, -41, -41, -41, -41, -41, -41, -41, -41, -41, -41, -41, -41, -41, -41, -41, -41, -41, -41, -41, -41, -41, -41, -41, -41, -41, -41, -41, -41, -41, -41, -41, -41, -41, -41, -41, -41, -41, -41, -41, -41, -41, -41, -41, -41, -41, -41, -41, -41, -41, -41, -41, -41, -41, -41, -41, -41, -41, -41, -41, -41, -41, -41, -41, -41, -41, -41, -41, -41, -41, -41, -41, -41, -41, -41, -41, -41, -41, -41, -41, -41, -41, -41, -41, -41, -41, -41, -41, -41, -41, -41, -41, -41, -41, -41, -41, -41, -41, -41, -41, -41, -41, -41, -41, -41, -41, -41, -41, -41, -41, -41, -41, -41, -41, -41, -41, -41, -41, -41, -41, -41, -41, -41, -41, -41, -41, -41, -41, -41, -41, -41, -41, -41, -41, -41, -41, -41, -41, -41, -41, -41, -41, -41, -41, -41, -41, -41, -41, -41, -41, -41, -41, -41, -41, -41, -41, -41, -41, -41, -41, -41, -41, -41, -41, -41, -41, -41, -41, -41, -41, -41, -41, -41, -41, -41, -41, -41, -41, -41, -41, -41, -41, -41, -41, -41, -41, -41, -41, -41, -41, -41, -41, -41, -41, -41, -41, -41, -41, -41, -41, -41, -41, -41, -41, -41, -41, -41, -41, -41, -41, -41, -41, -41, -41, -41, -41, -41, -41, -41, -41, -41, -41, -41, -41, -41, -41, -41, -41, -41, -41, -41, -41, -41, -41, -41, -41, -41, -41, -41, -41, -41, -41, -41, -41, -41, -41, -41, -41, -41, -41, -41, -41, -41, -41, -41, -41, -41, -41, -41, -41, -41, -41, -41, -41, -41, -41, -41, -41, -41, -41, -41, -41, -41, -41, -41, -41, -41, -41, -41, -41, -41, -41, -41, -41, -41, -41, -41, -41, -41, -41, -41, -41, -41, -41, -41, -41, -41, -41, -41, -41, -41, -41, -41, -41, -41, -41, -41, -41, -41, -41, -41, -41, -41, -41, -41, -41, -41, -41, -41, -41, -41, -41, -41, -41, -41, -41, -41, -41, -41, -41, -41, -41, -41, -41, -41, -41, -41, -41, -41, -41, -41, -41, -41, -41, -41, -41, -41, -41, -41, -41, -41, -41, -41, -41, -41, -41, -41, -41, -41, -41, -41, -41, -41, -41, -41, -41, -41, -41, -41, -41, -41, -41, -41, -41, -41, -41, -41, -41, -41, -41, -41, -41, -41, -41, -41, -41, -41, -41, -41, -41, -41, -41, -41, -41, -41, -41, -41, -41, -41, -41, -41, -41, -41, -41, -41, -41, -41, -41, -41, -41, -41, -41, -41, -41, -41, -41, -41, -41, -41, -41, -41, -41, -41, -41, -41, -41, -41, -41, -41, -41, -41, -41, -41, -41, -41, -41, -41, -41, -41, -41, -41, -41, -41, -41, -41, -41, -41, -41, -41, -41, -41, -41, -41, -41, -41, -41, -41, -41, -41, -41, -41, -41, -41, -41, -41, -41, -41, -41, -41, -41, -41, -41, -41, -41, -41, -41, -41, -41, -41, -41, -41, -41, -41, -41, -41, -41, -41, -41, -41, -41, -41, -41, -41, -41, -41, -41, -41, -41, -41, -41, -41, -41, -41, -41, -41, -41, -41, -41, -41, -41, -41, -41, -41, -41, -41, -41, -41, -41, -41, -41, -41, -41, -41, -41, -41, -41, -41, -41, -41, -41, -41, -41, -41, -41, -41, -41, -41, -41, -41, -41, -41, -41, -41, -41, -41, -41, -41, -41, -41, -41, -41, -41, -41, -41, -41, -41, -41, -41, -41, -41, -41, -41, -41, -41, -41, -41, -41, -41, -41, -41, -41, -41, -41, -41, -41, -41, -41, -41, -41, -41, -41, -41, -41, -41, -41, -41, -41, -41, -41, -41, -41, -41, -41, -41, -41, -41, -41, -41, -41, -41, -41, -41, -41, -41, -41, -41, -41, -41, -41, -41, -41, -41, -41, -41, -41, -41, -41, -41, -41, -41, -41, -41, -41, -41, -41, -41, -41, -41, -41, -41, -41, -41, -41, -41, -41, -41, -41, -41, -41, -41, -41, -41, -41, -41, -41, -41, -41, -41, -41, -41, -41, -41, -41, -41, -41, -41, -41, -41, -41, -41, -41, -41, -41, -41, -41, -41, -41, -41, -41, -41, -41, -41, -41, -41, -41, -41, -41, -41, -41, -41, -41, -41, -41, -41, -41, -41, -41, -41, -41, -41, -41, -41, -41, -41, -41, -41, -41, -41, -41, -41, -41, -41, -41, -41, -41, -41, -41, -41, -41, -41, -41, -41, -41, -41, -41, -41, -41, -41, -41, -41, -41, -41, -41, -41, -41, -41, -41, -41, -41, -41, -41, -41, -41, -41, -41, -41, -41, -41, -41, -41, -41, -41, -41, -41, -41, -41, -41, -41, -41, -41, -41, -41, -41, -41, -41, -41, -41, -41, -41, -41, -41, -41, -41, -41, -41, -41, -41, -41, -41, -41, -41, -41, -41, -41, -41, -41, -41, -41, -41, -41, -41, -41, -41, -41, -41, -41, -41, -41, -41, -41, -41, -41, -41, -41, -41, -41, -41, -41, -41, -41, -41, -41, -41, -41, -41, -41, -41, -41, -41, -41, -41, -41, -41, -41, -41, -41, -41, -41, -41, -41, -41, -41, -41, -41, -41, -41, -41, -41, -41, -41, -41, -41, -41, -41, -41, -41, -41, -41, -41, -41, -41, -41, -41, -41, -41, -41, -41, -41, -41, -41, -41, -41, -41, -41, -41, -41, -41, -41, -41, -41, -41, -41, -41, -41, -41, -41, -41, -41, -41, -41, -41, -41, -41, -41, -41, -41, -41, -41, -41, -41, -41, -41, -41, -41, -41, -41, -41, -41, -41, -41, -41, -41, -41, -41, -41, -41, -41, -41, -41, -41, -41, -41, -41, -41, -41, -41, -41, -41, -41, -41, -41, -41, -41, -41, -41, -41, -41, -41, -41, -41, -41, -41, -41, -41, -41, -41, -41, -41, -41, -41, -41, -41, -41, -41, -41, -41, -41, -41, -41, -41, -41, -41, -41, -41, -41, -41, -41, -41, -41, -41, -41, -41, -41, -41, -41, -41, -41, -41, -41, -41, -41, -41, -41, -41, -41, -41, -41, -41, -41, -41, -41, -41, -41, -41, -41, -41, -41, -41, -41, -41, -41, -41, -41, -41, -41, -41, -41, -41, -41, -41, -41, -41, -41, -41, -41, -41, -41, -41, -41, -41, -41, -41, -41, -41, -41, -41, -41, -41, -41, -41, -41, -41, -41, -41, -41, -41, -41, -41, -41, -41, -41, -41, -41, -41, -41, -41, -41, -41, -41, -41, -41, -41, -41, -41, -41, -41, -41, -41, -41, -41, -41, -41, -41, -41, -41, -41, -41, -41, -41, -41, -41, -41, -41, -41, -41, -41, -41, -41, -41, -41, -41, -41, -41, -41, -41, -41, -41, -41, -41, -41, -41, -41, -41, -41, -41, -41, -41, -41, -41, -41, -41, -41, -41, -41, -41, -41, -41, -41, -41, -41, -41, -41, -41, -41, -41, -41, -41, -41, -41, -41, -41, -41, -41, -41, -41, -41, -41, -41, -41, -41, -41, -41, -41, -41, -41, -41, -41, -41, -41, -41, -41, -41, -41, -41, -41, -41, -41, -41, -41, -41, -41, -41, -41, -41, -41, -41, -41, -41, -41, -41, -41, -41, -41, -41, -41, -41, -41, -41, -41, -41, -41, -41, -41, -41, -41, -41, -41, -41, -41, -41, -41, -41, -41, -41, -41, -41, -41, -41, -41, -41, -41, -41, -41, -41, -41, -41, -41, -41, -41, -41, -41, -41, -41, -41, -41, -41, -41, -41, -41, -41, -41, -41, -41, -41, -41, -41, -41, -41, -41, -41, -41, -41, -41, -41, -41, -41, -41, -41, -41, -41, -41, -41, -41, -41, -41, -41, -41, -41, -41, -41, -41, -41, -41, -41, -41, -41, -41, -41, -41, -41, -41, -41, -41, -41, -41, -41, -41, -41, -41, -41, -41, -41, -41, -41, -41, -41, -41, -41, -41, -41, -41, -41, -41, -41, -41, -41, -41, -41, -41, -41, -41, -41, -41, -41, -41, -41, -41, -41, -41, -41, -41, -41, -41, -41, -41, -41, -41, -41, -41, -41, -41, -41, -41, -41, -41, -41, -41, -41, -41, -41, -41, -41, -41, -41, -41, -41, -41, -41, -41, -41, -41, -41, -41, -41, -41, -41, -41, -41, -41, -41, -41, -41, -41, -41, -41, -41, -41, -41, -41, -41, -41, -41, -41, -41, -41, -41, -41, -41, -41, -41, -41, -41, -41, -41, -41, -41, -41, -41, -41, -41, -41, -41, -41, -41, -41, -41, -41, -41, -41, -41, -41, -41, -41, -41, -41, -41, -41, -41, -41, -41, -41, -41, -41, -41, -41, -41, -41, -41, -41, -41, -41, -41, -41, -41, -41, -41, -41, -41, -41, -41, -41, -41, -41, -41, -41, -41, -41, -41, -41, -41, -41, -41, -41, -41, -41, -41, -41, -41, -41, -41, -41, -41, -41, -41, -41, -41, -41, -41, -41, -41, -41, -41, -41, -41, -41, -41, -41, -41, -41, -41, -41, -41, -41, -41, -41, -41, -41, -41, -41, -41, -41, -41, -41, -41, -41, -41, -41, -41, -41, -41, -41, -41, -41, -41, -41, -41, -41, -41, -41, -41, -41, -41, -41, -41, -41, -41, -41, -41, -41, -41, -41, -41, -41, -41, -41, -41, -41, -41, -41, -41, -41, -41, -41, -41, -41, -41, -41, -41, -41, -41, -41, -41, -41, -41, -41, -41, -41, -41, -41, -41, -41, -41, -41, -41, -41, -41, -41, -41, -41, -41, -41, -41, -41, -41, -41, -41, -41, -41, -41, -41, -41, -41, -41, -41, -41, -41, -41, -41, -41, -41, -41, -41, -41, -41, -41, -41, -41, -41, -41, -41, -41, -41, -41, -41, -41, -41, -41, -41, -41, -41, -41, -41, -41, -41, -41, -41, -41, -41, -41, -41, -41, -41, -41, -41, -41, -41, -41, -41, -41, -41, -41, -41, -41, -41, -41, -41, -41, -41, -41, -41, -41, -41, -41, -41, -41, -41, -41, -41, -41, -41, -41, -41, -41, -41, -41, -41, -41, -41, -41, -41, -41, -41, -41, -41, -41, -41, -41, -41, -41, -41, -41, -41, -41, -41, -41, -41, -41, -41, -41, -41, -41, -41, -41, -41, -41, -41, -41, -41, -41, -41, -41, -41, -41, -41, -41, -41, -41, -41, -41, -41, -41, -41, -41, -41, -41, -41, -41, -41, -41, -41, -41, -41, -41, -41, -41, -41, -41, -41, -41, -41, -41, -41, -41, -41, -41, -41, -41, -41, -41, -41, -41, -41, -41, -41, -41, -41, -41, -41, -41, -41, -41, -41, -41, -41, -41, -41, -41, -41, -41, -41, -41, -41, -41, -41, -41, -41, -41, -41, -41, -41, -41, -41, -41, -41, -41, -41, -41, -41, -41, -41, -41, -41, -41, -41, -41, -41, -41, -41, -41, -41, -41, -41, -41, -41, -41, -41, -41, -41, -41, -41, -41, -41, -41, -41, -41, -41, -41, -41, -41, -41, -41, -41, -41, -41, -41, -41, -41, -41, -41, -41, -41, -41, -41, -41, -41, -41, -41, -41, -41, -41, -41, -41, -41, -41, -41, -41, -41, -41, -41, -41, -41, -41, -41, -41, -41, -41, -41, -41, -41, -41, -41, -41, -41, -41, -41, -41, -41, -41, -41, -41, -41, -41, -41, -41, -41, -41, -41, -41, -41, -41, -41, -41, -41, -41, -41, -41, -41, -41, -41, -41, -41, -41, -41, -41, -41, -41, -41, -41, -41, -41, -41, -41, -41, -41, -41, -41, -41, -41, -41, -41, -41, -41, -41, -41, -41, -41, -41, -41, -41, -41, -41, -41, -41, -41, -41, -41, -41, -41, -41, -41, -41, -41, -41, -41, -41, -41, -41, -41, -41, -41, -41, -41, -41, -41, -41, -41, -41, -41, -41, -41, -41, -41, -41, -41, -41, -41, -41, -41, -41, -41, -41, -41, -41, -41, -41, -41, -41, -41, -41, -41, -41, -41, -41, -41, -41, -41, -41, -41, -41, -41, -41, -41, -41, -41, -41, -41, -41, -41, -41, -41, -41, -41, -41, -41, -41, -41, -41, -41, -41, -41, -41, -41, -41, -41, -41, -41, -41, -41, -41, -41, -41, -41, -41, -41, -41, -41, -41, -41, -41, -41, -41, -41, -41, -41, -41, -41, -41, -41, -41, -41, -41, -41, -41, -41, -41, -41, -41, -41, -41, -41, -41, -41, -41, -41, -41, -41, -41, -41, -41, -41, -41, -41, -41, -41, -41, -41, -41, -41, -41, -41, -41, -41, -41, -41, -41, -41, -41, -41, -41, -41, -41, -41, -41, -41, -41, -41, -41, -41, -41, -41, -41, -41, -41, -41, -41, -41, -41, -41, -41, -41, -41, -41, -41, -41, -41, -41, -41, -41, -41, -41, -41, -41, -41, -41, -41, -41, -41, -41, -41, -41, -41, -41, -41, -41, -41, -41, -41, -41, -41, -41, -41, -41, -41, -41, -41, -41, -41, -41, -41, -41, -41, -41, -41, -41, -41, -41, -41, -41, -41, -41, -41, -41, -41, -41, -41, -41, -41, -41, -41, -41, -41, -41, -41, -41, -41, -41, -41, -41, -41, -41, -41, -41, -41, -41, -41, -41, -41, -41, -41, -41, -41, -41, -41, -41, -41, -41, -41, -41, -41, -41, -41, -41, -41, -41, -41, -41, -41, -41, -41, -41, -41, -41, -41, -41, -41, -41, -41, -41, -41, -41, -41, -41, -41, -41, -41, -41, -41, -41, -41, -41, -41, -41, -41, -41, -41, -41, -41, -41, -41, -41, -41, -41, -41, -41, -41, -41, -41, -41, -41, -41, -41, -41, -41, -41, -41, -41, -41, -41, -41, -41, -41, -41, -41, -41, -41, -41, -41, -41, -41, -41, -41, -41, -41, -41, -41, -41, -41, -41, -41, -41, -41, -41, -41, -41, -41, -41, -41, -41, -41, -41, -41, -41, -41, -41, -41, -41, -41, -41, -41, -41, -41, -41, -41, -41, -41, -41, -41, -41, -41, -41, -41, -41, -41, -41, -41, -41, -41, -41, -41, -41, -41, -41, -41, -41, -41, -41, -41, -41, -41, -41, -41, -41, -41, -41, -41, -41, -41, -41, -41, -41, -41, -41, -41, -41, -41, -41, -41, -41, -41, -41, -41, -41, -41, -41, -41, -41, -41, -41, -41, -41, -41, -41, -41, -41, -41, -41, -41, -41, -41, -41, -41, -41, -41, -41, -41, -41, -41, -41, -41, -41, -41, -41, -41, -41, -41, -41, -41, -41, -41, -41, -41, -41, -41, -41, -41, -41, -41, -41, -41, -41, -41, -41, -41, -41, -41, -41, -41, -41, -41, -41, -41, -41, -41, -41, -41, -41, -41, -41, -41, -41, -41, -41, -41, -41, -41, -41, -41, -41, -41, -41, -41, -41, -41, -41, -41, -41, -41, -41, -41, -41, -41, -41, -41, -41, -41, -41, -41, -41, -41, -41, -41, -41, -41, -41, -41, -41, -41, -41, -41, -41, -41, -41, -41, -41, -41, -41, -41, -41, -41, -41, -41, -41, -41, -41, -41, -41, -41, -41, -41, -41, -41, -41, -41, -41, -41, -41, -41, -41, -41, -41, -41, -41, -41, -41, -41, -41, -41, -41, -41, -41, -41, -41, -41, -41, -41, -41, -41, -41, -41, -41, -41, -41, -41, -41, -41, -41, -41, -41, -41, -41, -41, -41, -41, -41, -41, -41, -41, -41, -41, -41, -41, -41, -41, -41, -41, -41, -41, -41, -41, -41, -41, -41, -41, -41, -41, -41, -41, -41, -41, -41, -41, -41, -41, -41, -41, -41, -41, -41, -41, -41, -41, -41, -41, -41, -41, -41, -41, -41, -41, -41, -41, -41, -41, -41, -41, -41, -41, -41, -41, -41, -41, -41, -41, -41, -41, -41, -41, -41, -41, -41, -41, -41, -41, -41, -41, -41, -41, -41, -41, -41, -41, -41, -41, -41, -41, -41, -41, -41, -41, -41, -41, -41, -41, -41, -41, -41, -41, -41, -41, -41, -41, -41, -41, -41, -41, -41, -41, -41, -41, -41, -41, -41, -41, -41, -41, -41, -41, -41, -41, -41, -41, -41, -41, -41, -41, -41, -41, -41, -41, -41, -41, -41, -41, -41, -41, -41, -41, -41, -41, -41, -41, -41, -41, -41, -41, -41, -41, -41, -41, -41, -41, -41, -41, -41, -41, -41, -41, -41, -41, -41, -41, -41, -41, -41, -41, -41, -41, -41, -41, -41, -41, -41, -41, -41, -41, -41, -41, -41, -41, -41, -41, -41, -41, -41, -41, -41, -41, -41, -41, -41, -41, -41, -41, -41, -41, -41, -41, -41, -41, -41, -41, -41, -41, -41, -41, -41, -41, -41, -41, -41, -41, -41, -41, -41, -41, -41, -41, -41, -41, -41, -41, -41, -41, -41, -41, -41, -41, -41, -41, -41, -41, -41, -41, -41, -41, -41, -41, -41, -41, -41, -41, -41, -41, -41, -41, -41, -41, -41, -41, -41, -41, -41, -41, -41, -41, -41, -41, -41, -41, -41, -41, -41, -41, -41, -41, -41, -41, -41, -41, -41, -41, -41, -41, -41, -41, -41, -41, -41, -41, -41, -41, -41, -41, -41, -41, -41, -41, -41, -41, -41, -41, -41, -41, -41, -41, -41, -41, -41, -41, -41, -41, -41, -41, -41, -41, -41, -41, -41, -41, -41, -41, -41, -41, -41, -41, -41, -41, -41, -41, -41, -41, -41, -41, -41, -41, -41, -41, -41, -41, -41, -41, -41, -41, -41, -41, -41, -41, -41, -41, -41, -41, -41, -41, -41, -41, -41, -41, -41, -41, -41, -41, -41, -41, -41, -41, -41, -41, -41, -41, -41, -41, -41, -41, -41, -41, -41, -41, -41, -41, -41, -41, -41, -41, -41, -41, -41, -41, -41, -41, -41, -41, -41, -41, -41, -41, -41, -41, -41, -41, -41, -41, -41, -41, -41, -41, -41, -41, -41, -41, -41, -41, -41, -41, -41, -41, -41, -41, -41, -41, -41, -41, -41, -41, -41, -41, -41, -41, -41, -41, -41, -41, -41, -41, -41, -41, -41, -41, -41, -41, -41, -41, -41, -41, -41, -41, -41, -41, -41, -41, -41, -41, -41, -41, -41, -41, -41, -41, -41, -41, -41, -41, -41, -41, -41, -41, -41, -41, -41, -41, -41, -41, -41, -41, -41, -41, -41, -41, -41, -41, -41, -41, -41, -41, -41, -41, -41, -41, -41, -41, -41, -41, -41, -41, -41, -41, -41, -41, -41, -41, -41, -41, -41, -41, -41, -41, -41, -41, -41, -41, -41, -41, -41, -41, -41, -41, -41, -41, -41, -41, -41, -41, -41, -41, -41, -41, -41, -41, -41, -41, -41, -41, -41, -41, -41, -41, -41, -41, -41, -41, -41, -41, -41, -41, -41, -41, -41, -41, -41, -41, -41, -41, -41, -41, -41, -41, -41, -41, -41, -41, -41, -41, -41, -41, -41, -41, -41, -41, -41, -41, -41, -41, -41, -41, -41, -41, -41, -41, -41, -41, -41, -41, -41, -41, -41, -41, -41, -41, -41, -41, -41, -41, -41, -41, -41, -41, -41, -41, -41, -41, -41, -41, -41, -41, -41, -41, -41, -41, -41, -41, -41, -41, -41, -41, -41, -41, -41, -41, -41, -41, -41, -41, -41, -41, -41, -41, -41, -41, -41, -41, -41, -41, -41, -41, -41, -41, -41, -41, -41, -41, -41, -41, -41, -41, -41, -41, -41, -41, -41, -41, -41, -41, -41, -41, -41, -41, -41, -41, -41, -41, -41, -41, -41, -41, -41, -41, -41, -41, -41, -41, -41, -41, -41, -41, -41, -41, -41, -41, -41, -41, -41, -41, -41, -41, -41, -41, -41, -41, -41, -41, -41, -41, -41, -41, -41, -41, -41, -41, -41, -41, -41, -41, -41, -41, -41, -41, -41, -41, -41, -41, -41, -41, -41, -41, -41, -41, -41, -41, -41, -41, -41, -41, -41, -41, -41, -41, -41, -41, -41, -41, -41, -41, -41, -41, -41, -41, -41, -41, -41, -41, -41, -41, -41, -41, -41, -41, -41, -41, -41, -41, -41, -41, -41, -41, -41, -41, -41, -41, -41, -41, -41, -41, -41, -41, -41, -41, -41, -41, -41, -41, -41, -41, -41, -41, -41, -41, -41, -41, -41, -41, -41, -41, -41, -41, -41, -41, -41, -41, -41, -41, -41, -41, -41, -41, -41, -41, -41, -41, -41, -41, -41, -41, -41, -41, -41, -41, -41, -41, -41, -41, -41, -41, -41, -41, -41, -41, -41, -41, -41, -41, -41, -41, -41, -41, -41, -41, -41, -41, -41, -41, -41, -41, -41, -41, -41, -41, -41, -41, -41, -41, -41, -41, -41, -41, -41, -41, -41, -41, -41, -41, -41, -41, -41, -41, -41, -41, -41, -41, -41, -41, -41, -41, -41, -41, -41, -41, -41, -41, -41, -41, -41, -41, -41, -41, -41, -41, -41, -41, -41, -41, -41, -41, -41, -41, -41, -41, -41, -41, -41, -41, -41, -41, -41, -41, -41, -41, -41, -41, -41, -41, -41, -41, -41, -41, -41, -41, -41, -41, -41, -41, -41, -41, -41, -41, -41, -41, -41, -41, -41, -41, -41, -41, -41, -41, -41, -41, -41, -41, -41, -41, -41, -41, -41, -41, -41, -41, -41, -41, -41, -41, -41, -41, -41, -41, -41, -41, -41, -41, -41, -41, -41, -41, -41, -41, -41, -41, -41, -41, -41, -41, -41, -41, -41, -41, -41, -41, -41, -41, -41, -41, -41, -41, -41, -41, -41, -41, -41, -41, -41, -41, -41, -41, -41, -41, -41, -41, -41, -41, -41, -41, -41, -41, -41, -41, -41, -41, -41, -41, -41, -41, -41, -41, -41, -41, -41, -41, -41, -41, -41, -41, -41, -41, -41, -41, -41, -41, -41, -41, -41, -41, -41, -41, -41, -41, -41, -41, -41, -41, -41, -41, -41, -41, -41, -41, -41, -41, -41, -41, -41, -41, -41, -41, -41, -41, -41, -41, -41, -41, -41, -41, -41, -41, -41, -41, -41, -41, -41, -41, -41, -41, -41, -41, -41, -41, -41, -41, -41, -41, -41, -41, -41, -41, -41, -41, -41, -41, -41, -41, -41, -41, -41, -41, -41, -41, -41, -41, -41, -41, -41, -41, -41, -41, -41, -41, -41, -41, -41, -41, -41, -41, -41, -41, -41, -41, -41, -41, -41, -41, -41, -41, -41, -41, -41, -41, -41, -41, -41, -41, -41, -41, -41, -41, -41, -41, -41, -41, -41, -41, -41, -41, -41, -41, -41, -41, -41, -41, -41, -41, -41, -41, -41, -41, -41, -41, -41, -41, -41, -41, -41, -41, -41, -41, -41, -41, -41, -41, -41, -41, -41, -41, -41, -41, -41, -41, -41, -41, -41, -41, -41, -41, -41, -41, -41, -41, -41, -41, -41, -41, -41, -41, -41, -41, -41, -41, -41, -41, -41, -41, -41, -41, -41, -41, -41, -41, -41, -41, -41, -41, -41, -41, -41, -41, -41, -41, -41, -41, -41, -41, -41, -41, -41, -41, -41, -41, -41, -41, -41, -41, -41, -41, -41, -41, -41, -41, -41, -41, -41, -41, -41, -41, -41, -41, -41, -41, -41, -41, -41, -41, -41, -41, -41, -41, -41, -41, -41, -41, -41, -41, -41, -41, -41, -41, -41, -41, -41, -41, -41, -41, -41, -41, -41, -41, -41, -41, -41, -41, -41, -41, -41, -41, -41, -41, -41, -41, -41, -41, -41, -41, -41, -41, -41, -41, -41, -41, -41, -41, -41, -41, -41, -41, -41, -41, -41, -41, -41, -41, -41, -41, -41, -41, -41, -41, -41, -41, -41, -41, -41, -41, -41, -41, -41, -41, -41, -41, -41, -41, -41, -41, -41, -41, -41, -41, -41, -41, -41, -41, -41, -41, -41, -41, -41, -41, -41, -41, -41, -41, -41, -41, -41, -41, -41, -41, -41, -41, -41, -41, -41, -41, -41, -41, -41, -41, -41, -41, -41, -41, -41, -41, -41, -41, -41, -41, -41, -41, -41, -41, -41, -41, -41, -41, -41, -41, -41, -41, -41, -41, -41, -41, -41, -41, -41, -41, -41, -41, -41, -41, -41, -41, -41, -41, -41, -41, -41, -41, -41, -41, -41, -41, -41, -41, -41, -41, -41, -41, -41, -41, -41, -41, -41, -41, -41, -41, -41, -41, -41, -41, -41, -41, -41, -41, -41, -41, -41, -41, -41, -41, -41, -41, -41, -41, -41, -41, -41, -41, -41, -41, -41, -41, -41, -41, -41, -41, -41, -41, -41, -41, -41, -41, -41, -41, -41, -41, -41, -41, -41, -41, -41, -41, -41, -41, -41, -41, -41, -41, -41, -41, -41, -41, -41, -41, -41, -41, -41, -41, -41, -41, -41, -41, -41, -41, -41, -41, -41, -41, -41, -41, -41, -41, -41, -41, -41, -41, -41, -41, -41, -41, -41, -41, -41, -41, -41, -41, -41, -41, -41, -41, -41, -41, -41, -41, -41, -41, -41, -41, -41, -41, -41, -41, -41, -41, -41, -41, -41, -41, -41, -41, -41, -41, -41, -41, -41, -41, -41, -41, -41, -41, -41, -41, -41, -41, -41, -41, -41, -41, -41, -41, -41, -41, -41, -41, -41, -41, -41, -41, -41, -41, -41, -41, -41, -41, -41, -41, -41, -41, -41, -41, -41, -41, -41, -41, -41, -41, -41, -41, -41, -41, -41, -41, -41, -41, -41, -41, -41, -41, -41, -41, -41, -41, -41, -41, -41, -41, -41, -41, -41, -41, -41, -41, -41, -41, -41, -41, -41, -41, -41, -41, -41, -41, -41, -41, -41, -41, -41, -41, -41, -41, -41, -41, -41, -41, -41, -41, -41, -41, -41, -41, -41, -41, -41, -41, -41, -41, -41, -41, -41, -41, -41, -41, -41, -41, -41, -41, -41, -41, -41, -41, -41, -41, -41, -41, -41, -41, -41, -41, -41, -41, -41, -41, -41, -41, -41, -41, -41, -41, -41, -41, -41, -41, -41, -41, -41, -41, -41, -41, -41, -41, -41, -41, -41, -41, -41, -41, -41, -41, -41, -41, -41, -41, -41, -41, -41, -41, -41, -41, -41, -41, -41, -41, -41, -41, -41, -41, -41, -41, -41, -41, -41, -41, -41, -41, -41, -41, -41, -41, -41, -41, -41, -41, -41, -41, -41, -41, -41, -41, -41, -41, -41, -41, -41, -41, -41, -41, -41, -41, -41, -41, -41, -41, -41, -41, -41, -41, -41, -41, -41, -41, -41, -41, -41, -41, -41, -41, -41, -41, -41, -41, -41, -41, -41, -41, -41, -41, -41, -41, -41, -41, -41, -41, -41, -41, -41, -41, -41, -41, -41, -41, -41, -41, -41, -41, -41, -41, -41, -41, -41, -41, -41, -41, -41, -41, -41, -41, -41, -41, -41, -41]","['0', '0', '0', '0', '0', '0', '0', '0', '0', '0', '0', '0', '0', '0', '0', '0', '0', '0', '0', '0', '0', '0', '0', '0', '0', '0', '0', '0', '0', '0', '0', '0', '0', '0', '0', '0', '0', '0', '0', '0', '0', '0', '0', '0', '0', '0', '0', '0', '0', '0', '0', '0', '0', '0', '0', '0', '0', '0', '0', '0', '0', '0', '0', '0', '0', '0', '0', '0', '0', '0', '0', '0', '0', '0', '0', '0', '0', '0', '0', '0', '0', '0', '0', '0', '0', '0', '0', '0', '0', '0', '0', '0', '0', '0', '0', '0', '0', '0', '0', '0', '0', '0', '0', '0', '0', '0', '0', '0', '0', '0', '0', '0', '0', '0', '0', '0', '0', '0', '0', '0', '0', '0', '0', '0', '0', '0', '0', '0', '0', '0', '0', '0', '0', '0', '0', '0', '0', '0', '0', '0', '0', '0', '0', '0', '0', '0', '0', '0', '0', '0', '0', '0', '0', '0', '0', '0', '0', '0', '0', '0', '0', '0', '0', '0', '0', '0', '0', '0', '0', '0', '0', '0', '0', '0', '0', '0', '0', '0', '0', '0', '0', '0', '0', '0', '0', '0', '0', '0', '0', '0', '0', '0', '0', '0', '0', '0', '0', '0', '0', '0', '0', '0', '0', '0', '0', '0', '0', '0', '0', '0', '0', '0', '0', '0', '0', '0', '0', '0', '0', '0', '0', '0', '0', '0', '0', '0', '0', '0', '0', '0', '0', '0', '0', '0', '0', '0', '0', '0', '0', '0', '0', '0', '0', '0', '0', '0', '0', '0', '0', '0', '0', '0', '0', '0', '0', '0', '0', '0', '0', '0', '0', '0', '0', '0', '0', '0', '0', '0', '0', '0', '0', '0', '0', '0', '0', '0', '0', '0', '0', '0', '0', '0', '0', '0', '0', '0', '0', '0', '0', '0', '0', '0', '0', '0', '0', '0', '0', '0', '0', '0', '0', '0', '0', '0', '0', '0', '0', '0', '0', '0', '0', '0', '0', '0', '0', '0', '0', '0', '0', '0', '0', '0', '0', '0', '0', '0', '0', '0', '0', '0', '0', '0', '0', '0', '0', '0', '0', '0', '0', '0', '0', '0', '0', '0', '0', '0', '0', '0', '0', '0', '0', '0', '0', '0', '0', '0', '0', '0', '0', '0', '0', '0', '0', '0', '0', '0', '0', '0', '0', '0', '0', '0', '0', '0', 'Innocent', 'Innocent', 'Innocent', 'Innocent', 'Innocent', 'Innocent', 'Innocent', 'Innocent', 'Innocent', 'Innocent', 'Innocent', 'Innocent', 'Innocent', 'Innocent', 'Innocent', 'Innocent', 'Innocent', 'Innocent', 'Innocent', 'Innocent', 'Innocent', 'Innocent', 'Innocent', 'Innocent', 'Innocent', 'Innocent', 'Innocent', 'Innocent', 'Innocent', 'Innocent', 'Innocent', 'Innocent', 'Innocent', 'Innocent', 'Innocent', 'Innocent', 'Innocent', 'Innocent', 'Innocent', 'Innocent', 'Innocent', 'Innocent', 'Innocent', 'Innocent', 'Innocent', 'Innocent', 'Innocent', 'Innocent', 'Innocent', 'Innocent', 'Innocent', 'Innocent', 'Innocent', 'Innocent', 'Innocent', 'Innocent', 'Innocent', 'Innocent', 'Innocent', 'Innocent', 'Innocent', 'Innocent', 'Innocent', 'Innocent', 'Innocent', 'Innocent', 'Innocent', 'Innocent', 'Innocent', 'Innocent', 'Innocent', 'Innocent', 'Innocent', 'Innocent', 'Innocent', 'Innocent', 'Innocent', 'Innocent', 'Innocent', 'Innocent', 'Innocent', 'Innocent', 'Innocent', 'Innocent', 'Innocent', 'Innocent', 'Innocent', 'Innocent', 'Innocent', 'Innocent', 'Innocent', 'Innocent', 'Innocent', 'Innocent', 'Innocent', 'Innocent', 'Innocent', 'Innocent', 'Innocent', 'Innocent', 'Innocent', 'Innocent', 'Innocent', 'Innocent', 'Innocent', 'Innocent', 'Innocent', 'Innocent', 'Innocent', 'Innocent', 'Innocent', 'Innocent', 'Innocent', 'Innocent', 'Innocent', 'Innocent', 'Innocent', 'Innocent', 'Innocent', 'Innocent', 'Innocent', 'Innocent', 'Innocent', 'Innocent', 'Innocent', 'Innocent', 'Innocent', 'Innocent', 'Innocent', 'Innocent', 'Innocent', 'Innocent', 'Innocent', 'Innocent', 'Innocent', 'Innocent', 'Innocent', 'Innocent', 'Innocent', 'Innocent', 'Innocent', 'Innocent', 'Innocent', 'Innocent', 'Innocent', 'Innocent', 'Innocent', 'Innocent', 'Innocent', 'Innocent', 'Innocent', 'Innocent', 'Innocent', 'Innocent', 'Innocent', 'Innocent', 'Innocent', 'Innocent', 'Innocent', 'Innocent', 'Innocent', 'Innocent', 'Innocent', 'Innocent', 'Innocent', 'Innocent', 'Innocent', 'Innocent', 'Innocent', 'Innocent', 'Innocent', 'Innocent', 'Innocent', 'Innocent', 'Innocent', 'Innocent', 'Innocent', 'Innocent', 'Innocent', 'Innocent', 'Innocent', 'Innocent', 'Innocent', 'Innocent', 'Innocent', 'Innocent', 'Innocent', 'Innocent', 'Innocent', 'Innocent', 'Innocent', 'Innocent', 'Innocent', 'Innocent', 'Innocent', 'Innocent', 'Innocent', 'Innocent', 'Innocent', 'Innocent', 'Innocent', 'Innocent', 'Innocent', 'Innocent', 'Innocent', 'Innocent', 'Innocent', 'Innocent', 'Innocent', 'Innocent', 'Innocent', 'Innocent', 'Innocent', 'Innocent', 'Innocent', 'Innocent', 'Innocent', 'Innocent', 'Innocent', 'Innocent', 'Innocent', 'Innocent', 'Innocent', 'Innocent', 'Innocent', 'Innocent', 'Innocent', 'Innocent', 'Innocent', 'Innocent', 'Innocent', 'Innocent', 'Innocent', 'Innocent', 'Innocent', 'Innocent', 'Innocent', 'Innocent', 'Innocent', 'Innocent', 'Innocent', 'Innocent', 'Innocent', 'Innocent', 'Innocent', 'Innocent', 'Innocent', 'Innocent', 'Innocent', 'Innocent', 'Innocent', 'Innocent', 'Innocent', 'Innocent', 'Innocent', 'Innocent', 'Innocent', 'Innocent', 'Innocent', 'Innocent', 'Innocent', 'Innocent', 'Innocent', 'Innocent', 'Innocent', '0', 'Guilty', 'Guilty', 'Guilty', 'Guilty', 'Guilty', 'Guilty', 'Guilty', 'Guilty', 'Guilty', 'Guilty', 'Guilty', 'Guilty', 'Guilty', 'Guilty', 'Guilty', 'Guilty', 'Guilty', 'Guilty', 'Guilty', 'Guilty', 'Guilty', 'Guilty', 'Guilty', 'Guilty', 'Guilty', 'Guilty', 'Guilty', 'Guilty', 'Guilty', 'Guilty', 'Guilty', 'Guilty', 'Guilty', 'Guilty', 'Guilty', 'Guilty', 'Guilty', 'Guilty', 'Guilty', 'Guilty', 'Guilty', 'Guilty', 'Guilty', 'Guilty', 'Guilty', 'Guilty', 'Guilty', 'Guilty', 'Guilty', 'Guilty', 'Guilty', 'Guilty', 'Guilty', 'Guilty', 'Guilty', 'Guilty', 'Guilty', 'Guilty', 'Guilty', 'Guilty', 'Guilty', 'Guilty', 'Guilty', 'Guilty', 'Guilty', 'Guilty', 'Guilty', 'Guilty', 'Guilty', 'Guilty', 'Guilty', 'Guilty', 'Guilty', 'Guilty', 'Guilty', 'Guilty', 'Guilty', 'Guilty', 'Guilty', 'Guilty', 'Guilty', 'Guilty', 'Guilty', 'Guilty', 'Guilty', 'Guilty', 'Guilty', 'Guilty', 'Guilty', 'Guilty', 'Guilty', 'Guilty', 'Guilty', 'Guilty', 'Guilty', 'Guilty', 'Guilty', 'Guilty', 'Guilty', 'Guilty', 'Guilty', 'Guilty', 'Guilty', 'Guilty', 'Guilty', 'Guilty', 'Guilty', 'Guilty', 'Guilty', 'Guilty', 'Guilty', 'Guilty', 'Guilty', 'Guilty', 'Guilty', 'Guilty', 'Guilty', 'Guilty', 'Guilty', 'Guilty', 'Guilty', 'Guilty', 'Guilty', 'Guilty', 'Guilty', 'Guilty', 'Guilty', 'Guilty', 'Guilty', 'Guilty', 'Guilty', 'Guilty', 'Guilty', 'Guilty', 'Guilty', 'Guilty', 'Guilty', 'Guilty', 'Guilty', 'Guilty', 'Guilty', 'Guilty', 'Guilty', 'Guilty', 'Guilty', 'Guilty', 'Guilty', 'Guilty', 'Guilty', 'Guilty', 'Guilty', 'Guilty', 'Guilty', 'Guilty', 'Guilty', 'Guilty', 'Guilty', 'Guilty', 'Guilty', 'Guilty', 'Guilty', 'Guilty', 'Guilty', 'Guilty', 'Guilty', 'Guilty', 'Guilty', 'Guilty', 'Guilty', 'Guilty', 'Guilty', 'Guilty', 'Guilty', 'Guilty', 'Guilty', 'Guilty', 'Guilty', 'Guilty', 'Guilty', 'Guilty', 'Guilty', 'Guilty', 'Guilty', 'Guilty', 'Guilty', 'Guilty', 'Guilty', 'Guilty', 'Guilty', 'Guilty', 'Guilty', 'Guilty', 'Guilty', 'Guilty', 'Guilty', 'Guilty', 'Guilty', 'Guilty', 'Guilty', 'Guilty', 'Guilty', 'Guilty', 'Guilty', 'Guilty', 'Guilty', 'Guilty', 'Guilty', 'Guilty', 'Guilty', 'Guilty', 'Guilty', 'Guilty', 'Guilty', 'Guilty', 'Guilty', 'Guilty', 'Guilty', 'Guilty', 'Guilty', 'Guilty', 'Guilty', 'Guilty', 'Guilty', 'Guilty', 'Guilty', 'Guilty', 'Guilty', 'Guilty', 'Guilty', 'Guilty', 'Guilty', 'Guilty', 'Guilty', 'Guilty', 'Guilty', 'Guilty', 'Guilty', 'Guilty', 'Guilty', 'Guilty', 'Guilty', 'Guilty', 'Guilty', 'Guilty', 'Guilty', 'Guilty', 'Guilty', 'Guilty', 'Guilty', 'Guilty', 'Guilty', 'Guilty', 'Guilty', 'Guilty', 'Guilty', 'Guilty', 'Guilty', 'Guilty', 'Guilty', 'Guilty', 'Guilty', 'Guilty', 'Guilty', 'Guilty', 'Guilty', 'Guilty', 'Guilty', 'Guilty', 'Guilty', 'Guilty', 'Guilty', 'Guilty', 'Guilty', 'Guilty', 'Guilty', 'Guilty', 'Guilty', 'Guilty', 'Guilty', 'Guilty', 'Guilty', 'Guilty', 'Guilty', 'Guilty', 'Guilty', 'Guilty', 'Guilty', 'Guilty', 'Guilty', 'Guilty', 'Guilty', 'Guilty', 'Guilty', 'Guilty', 'Guilty', 'Guilty', 'Guilty', 'Guilty', 'Guilty', 'Guilty', 'Guilty', 'Guilty', 'Guilty', 'Guilty', 'Guilty', 'Guilty', 'Guilty', 'Guilty', 'Guilty', 'Guilty', 'Guilty', 'Guilty', 'Guilty', 'Guilty', 'Guilty', 'Guilty', 'Guilty', 'Guilty', 'Guilty', 'Guilty', 'Guilty', 'Guilty', 'Guilty', 'Guilty', 'Guilty', 'Guilty', 'Guilty', 'Guilty', 'Guilty', 'Guilty', 'Guilty', 'Guilty', 'Guilty', 'Guilty', 'Guilty', 'Guilty', 'Guilty', 'Guilty', 'Guilty', 'Guilty', 'Guilty', 'Guilty', 'Guilty', 'Guilty', 'Guilty', 'Guilty', 'Guilty', 'Guilty', 'Guilty', 'Guilty', 'Guilty', 'Guilty', 'Guilty', 'Guilty', 'Guilty', 'Guilty', 'Guilty', 'Guilty', 'Guilty', 'Guilty', 'Guilty', 'Guilty', 'Guilty', 'Guilty', 'Guilty', 'Guilty', 'Guilty', 'Guilty', 'Guilty', 'Guilty', 'Guilty', 'Guilty', 'Guilty', 'Guilty', 'Guilty', 'Guilty', 'Innocent', 'Innocent', 'Innocent', 'Innocent', 'Innocent', 'Innocent', 'Innocent', 'Innocent', 'Innocent', 'Innocent', 'Innocent', 'Innocent', 'Innocent', 'Innocent', 'Innocent', 'Innocent', 'Innocent', 'Innocent', 'Innocent', 'Innocent', 'Innocent', 'Innocent', 'Innocent', 'Innocent', 'Innocent', 'Innocent', 'Innocent', 'Innocent', 'Innocent', 'Innocent', 'Innocent', 'Innocent', 'Innocent', 'Innocent', 'Innocent', 'Innocent', 'Innocent', 'Innocent', 'Innocent', 'Innocent', 'Innocent', 'Innocent', 'Innocent', 'Innocent', 'Innocent', 'Innocent', 'Innocent', 'Innocent', 'Innocent', 'Innocent', 'Innocent', 'Innocent', 'Innocent', 'Innocent', 'Innocent', 'Innocent', 'Innocent', 'Innocent', 'Innocent', 'Innocent', 'Innocent', 'Innocent', 'Innocent', 'Innocent', 'Innocent', 'Innocent', 'Innocent', 'Innocent', 'Innocent', 'Innocent', 'Innocent', 'Innocent', 'Innocent', 'Innocent', 'Innocent', 'Innocent', 'Innocent', 'Innocent', 'Innocent', 'Innocent', 'Innocent', 'Innocent', 'Innocent', 'Innocent', 'Innocent', 'Innocent', 'Innocent', 'Innocent', 'Innocent', 'Innocent', 'Innocent', 'Innocent', 'Innocent', 'Innocent', 'Innocent', 'Innocent', 'Innocent', 'Innocent', 'Innocent', 'Innocent', 'Innocent', 'Innocent', 'Innocent', 'Innocent', 'Innocent', 'Innocent', 'Innocent', 'Innocent', 'Innocent', 'Innocent', 'Innocent', 'Innocent', 'Innocent', 'Innocent', 'Innocent', 'Innocent', 'Innocent', 'Innocent', 'Innocent', 'Innocent', 'Innocent', 'Innocent', 'Innocent', 'Innocent', 'Innocent', 'Innocent', 'Innocent', 'Innocent', 'Innocent', 'Innocent', 'Innocent', 'Innocent', 'Innocent', 'Innocent', 'Innocent', 'Innocent', 'Innocent', 'Innocent', 'Innocent', 'Innocent', 'Innocent', 'Innocent', 'Innocent', 'Innocent', 'Innocent', 'Innocent', 'Innocent', 'Innocent', 'Innocent', 'Innocent', 'Innocent', 'Innocent', 'Innocent', 'Innocent', 'Innocent', 'Innocent', 'Innocent', 'Innocent', 'Innocent', 'Innocent', 'Innocent', 'Innocent', 'Innocent', 'Innocent', 'Innocent', 'Innocent', 'Innocent', 'Innocent', 'Innocent', 'Innocent', 'Innocent', 'Innocent', 'Innocent', 'Innocent', 'Innocent', 'Innocent', 'Innocent', 'Innocent', 'Innocent', 'Innocent', 'Innocent', 'Innocent', 'Innocent', 'Innocent', 'Innocent', 'Innocent', 'Innocent', 'Innocent', 'Innocent', 'Innocent', 'Innocent', 'Innocent', 'Innocent', 'Innocent', 'Innocent', 'Innocent', 'Innocent', 'Innocent', 'Innocent', 'Innocent', 'Innocent', 'Innocent', 'Innocent', 'Innocent', 'Innocent', 'Innocent', 'Innocent', 'Innocent', 'Innocent', 'Innocent', 'Innocent', 'Guilty', 'Guilty', 'Guilty', 'Guilty', 'Guilty', 'Guilty', 'Guilty', 'Guilty', 'Guilty', 'Guilty', 'Guilty', 'Guilty', 'Guilty', 'Guilty', 'Guilty', 'Guilty', 'Guilty', 'Guilty', 'Guilty', 'Guilty', 'Guilty', 'Guilty', 'Guilty', 'Guilty', 'Guilty', 'Guilty', 'Guilty', 'Guilty', 'Guilty', 'Guilty', 'Guilty', 'Guilty', 'Guilty', 'Guilty', 'Guilty', 'Guilty', 'Guilty', 'Guilty', 'Guilty', 'Guilty', 'Guilty', 'Guilty', 'Guilty', 'Guilty', 'Guilty', 'Guilty', 'Guilty', 'Guilty', 'Guilty', 'Guilty', 'Guilty', 'Guilty', 'Guilty', 'Guilty', 'Guilty', 'Guilty', 'Guilty', 'Guilty', 'Guilty', 'Guilty', 'Guilty', 'Guilty', 'Guilty', 'Innocent', 'Innocent', 'Innocent', 'Innocent', 'Innocent', 'Innocent', 'Innocent', 'Innocent', 'Innocent', 'Innocent', 'Innocent', 'Innocent', 'Innocent', 'Innocent', 'Innocent', 'Innocent', 'Innocent', 'Innocent', 'Innocent', 'Innocent', 'Innocent', 'Innocent', 'Innocent', 'Innocent', 'Innocent', 'Innocent', 'Innocent', 'Innocent', 'Innocent', 'Innocent', 'Innocent', 'Innocent', 'Innocent', 'Innocent', 'Innocent', 'Innocent', 'Innocent', 'Innocent', 'Innocent', 'Innocent', 'Innocent', 'Innocent', 'Innocent', 'Innocent', 'Innocent', 'Innocent', 'Innocent', 'Innocent', 'Innocent', 'Innocent', 'Innocent', 'Innocent', 'Innocent', 'Innocent', 'Innocent', 'Innocent', 'Innocent', 'Innocent', 'Innocent', 'Innocent', 'Innocent', 'Innocent', 'Innocent', 'Innocent', 'Innocent', 'I